Folder: hte-data-processing/membrane conductivity analysis/EIS data (part 3)

File: Book10.csv
PVDF5-3(6),,,,,,
freq / Hz,Log(f / Hz),neg. Phase / бу,Z / Ohm,Z' / Ohm,Z'' / Ohm,Log(Z / Ohm)
50000,4.69897,38.7896,3.1147,2.42776,1.95124,0.493416
43487.4,4.63836,40.1968,3.50343,2.67603,2.26117,0.544493
37823.2,4.57776,40.5925,4.08009,3.09825,2.65481,0.61067
32896.7,4.51715,42.2072,4.54738,3.36833,3.05499,0.657761
28611.8,4.45655,43.683,5.07103,3.66723,3.5024,0.705096
24885.1,4.39594,45.1088,5.62084,3.96698,3.98207,0.749801
21643.8,4.33533,46.4259,6.23244,4.29597,4.5153,0.794658
18824.7,4.27473,47.2114,6.94278,4.7162,5.09506,0.841533
16372.7,4.21412,48.3031,7.65608,5.09274,5.7166,0.884006
14240.2,4.15352,49.423,8.43401,5.48607,6.4059,0.926034
12385.4,4.09291,50.436,9.26754,5.90287,7.14447,0.966964
10772.2,4.0323,51.3454,10.199,6.37056,7.96468,1.00856
9369.09,3.9717,52.2092,11.2273,6.87988,8.87241,1.05028
8148.75,3.91109,52.9973,12.3483,7.43184,9.86143,1.09161
7087.37,3.85049,53.736,13.5849,8.03559,10.9535,1.13306
6164.23,3.78988,54.3967,14.9325,8.69327,12.1411,1.17413
5361.34,3.72927,55.1112,16.4216,9.39292,13.47,1.21542
4663.02,3.66867,55.8608,18.0324,10.1199,14.925,1.25605
4055.65,3.60806,56.463,19.8318,10.9566,16.5304,1.29736
3527.4,3.54745,57.0467,21.8375,11.8786,18.3242,1.3392
3067.95,3.48685,57.5801,23.9738,12.8528,20.2373,1.37974
2668.35,3.42624,58.1747,26.3895,13.916,22.4221,1.42143
2320.79,3.36564,58.6447,29.0715,15.1272,24.8259,1.46347
2018.51,3.30503,59.1617,32.0136,16.4107,27.4874,1.50533
1755.6,3.24443,59.6393,35.2928,17.8385,30.4528,1.54769
1526.93,3.18382,60.0631,38.9057,19.4158,33.7147,1.59001
1328.04,3.12321,60.4652,42.8388,21.1175,37.2722,1.63184
1155.06,3.0626,60.9851,47.3213,22.9526,41.3822,1.67506
1004.62,3.002,61.2897,52.2041,25.0779,45.7862,1.7177
873.764,2.94139,61.7424,57.68,27.3078,50.8061,1.76103
759.956,2.88079,62.0557,63.6971,29.8493,56.2703,1.80412
660.971,2.82018,62.4491,70.4384,32.5803,62.4507,1.84781
574.878,2.75958,62.8024,77.8272,35.5718,69.2223,1.89113
500,2.69897,63.071,85.938,38.92,76.6196,1.93419
434.875,2.63836,63.3568,95.1555,42.6708,85.0515,1.97843
378.232,2.57776,63.6567,105.275,46.7157,94.3426,2.02233
328.967,2.51715,63.93,116.643,51.2607,104.775,2.06686
286.118,2.45655,64.19,128.999,56.1648,116.131,2.11059
248.851,2.39594,64.3871,143.043,61.8359,128.987,2.15547
216.438,2.33533,64.6488,158.477,67.8545,143.216,2.19997
188.247,2.27473,64.8417,175.711,74.6984,159.042,2.2448
163.727,2.21412,65.1128,194.808,81.9816,176.717,2.28961
142.402,2.15352,65.3057,216.07,90.269,196.31,2.33459
123.854,2.09291,65.5435,239.749,99.2564,218.237,2.37976
107.722,2.0323,65.7404,265.993,109.289,242.504,2.42487
93.6909,1.9717,65.9873,295.133,120.101,269.591,2.47002
81.4875,1.91109,66.0637,327.758,132.978,299.57,2.51555
70.8737,1.85049,66.3331,363.804,146.038,333.206,2.56087
61.6423,1.78988,66.4457,404.971,161.833,371.229,2.60742
53.6134,1.72927,66.7465,449.124,177.314,412.64,2.65237
46.6302,1.66867,67.0615,499.017,194.488,459.556,2.69812
40.5565,1.60806,67.3417,554.595,213.649,511.791,2.74398
35.274,1.54745,67.5958,615.667,234.654,569.196,2.78935
30.6795,1.48685,67.8293,683.908,258.085,633.342,2.835
26.6835,1.42624,68.1257,761.778,283.817,706.933,2.88183
23.2079,1.36564,68.4436,848.511,311.757,789.163,2.92866
20.1851,1.30503,68.7978,946.495,342.309,882.427,2.97612
17.556,1.24443,69.0902,1052.42,375.607,983.113,3.02219
15.2693,1.18382,69.4843,1173.08,411.12,1098.67,3.06933
13.2804,1.12321,69.8007,1308.64,451.856,1228.15,3.11682
11.5506,1.0626,70.1462,1463.17,496.924,1376.2,3.16529
10.0462,1.002,70.5986,1635.59,543.317,1542.72,3.21367
8.73764,0.941394,70.9567,1828.76,596.69,1728.67,3.26216
7.59956,0.880788,71.1807,2045.37,659.804,1936.03,3.31077
6.60971,0.820182,71.5842,2293.1,724.416,2175.67,3.36042
5.74879,0.759576,71.9592,2569.76,795.84,2443.42,3.40989
5,0.69897,72.3676,2889.62,875.294,2753.87,3.46084
4.34874,0.638363,72.7327,3236.07,960.562,3090.22,3.51002
3.78232,0.577758,73.0831,3631.24,1056.63,3474.1,3.56005
3.28967,0.517152,73.4723,4077.38,1159.93,3908.91,3.61038
2.86118,0.456545,73.7862,4584.6,1280.12,4402.25,3.6613
2.48851,0.395939,74.0548,5175.64,1421.84,4976.5,3.71396
2.16438,0.335334,74.4149,5793.97,1556.66,5580.94,3.76298
1.88247,0.274728,74.924,6413.78,1668.22,6193.03,3.80711
1.63727,0.21412,74.8685,7308.64,1907.81,7055.24,3.86384
1.42402,0.153516,75.1637,8198.44,2099.28,7925.11,3.91373
1.23854,0.09291,75.1859,9364.07,2394.24,9052.81,3.97146
1.07722,0.0323044,75.4332,10473.4,2634.15,10136.7,4.02009
0.936909,-0.0283026,75.7219,11746.1,2896.92,11383.3,4.06989
0.814875,-0.088909,75.6199,13204,3279.26,12790.3,4.12071
0.708737,-0.149515,75.7922,14849.8,3644.73,14395.5,4.17172
0.616423,-0.210121,75.8233,16865.9,4130.69,16352.3,4.22701
0.536134,-0.270727,76.0273,18955.1,4576.87,18394.2,4.27773
0.466302,-0.331333,75.9909,21642,5239,20998.3,4.3353
0.405565,-0.39194,76.2061,24204.9,5771.18,23506.8,4.3839
0.35274,-0.452545,76.2612,27429.7,6514.46,26644.9,4.43822
0.306795,-0.513152,76.2834,31078.9,7369.42,30192.5,4.49247
0.266835,-0.573757,76.4199,34840.5,8180.72,33866.5,4.54208
0.232079,-0.634364,76.3175,39705.5,9391.97,38578.8,4.59885
0.201851,-0.694969,76.3181,44975.7,10638.1,43699.4,4.65298
0.17556,-0.755574,74.7506,50995.5,13412.9,49199.9,4.70753
0.152693,-0.816181,76.2935,57704.7,13673.1,56061.4,4.76121
0.132804,-0.876789,76.0205,65739.2,15881,63792.1,4.81782
0.115506,-0.937395,76.1082,74728.7,17941.6,72543,4.87349
0.100462,-0.997998,76.0715,84916,20440.2,82419.2,4.92899
0.0873764,-1.05861,75.8179,97395.9,23862.5,94427.5,4.98854
0.0759956,-1.11921,75.8222,111361,27275.7,107969,5.04673
0.0660971,-1.17982,75.5124,127328,31853.8,123279,5.10492
0.0574878,-1.24042,75.3571,147160,37201.1,142380,5.16779
0.05,-1.30103,75.3082,171730,43553.9,166115,5.23485

File: Book11.csv
PVDF5-2(6),,,,,,
freq / Hz,Log(f / Hz),neg. Phase / бу,Z / Ohm,Z' / Ohm,Z'' / Ohm,Log(Z / Ohm)
50000,4.69897,45.8801,3.61476,2.51646,2.59498,0.558079
43487.4,4.63836,47.3391,4.15519,2.8158,3.05563,0.618591
37823.2,4.57776,46.6698,5.02395,3.44744,3.65448,0.701045
32896.7,4.51715,48.1553,5.6695,3.7822,4.22353,0.753545
28611.8,4.45655,49.1112,6.40645,4.19362,4.84315,0.806617
24885.1,4.39594,50.3096,7.18908,4.59123,5.53204,0.856673
21643.8,4.33533,51.2808,8.03169,5.02385,6.26649,0.904807
18824.7,4.27473,51.7807,8.98962,5.56163,7.06268,0.953741
16372.7,4.21412,52.7702,9.97143,6.03284,7.93941,0.998757
14240.2,4.15352,53.6235,11.0158,6.53336,8.86926,1.04202
12385.4,4.09291,54.1804,12.229,7.15683,9.91605,1.08739
10772.2,4.0323,54.979,13.5114,7.75387,11.0651,1.1307
9369.09,3.9717,55.7301,14.8982,8.38906,12.3118,1.17313
8148.75,3.91109,56.506,16.4502,9.07806,13.7186,1.21617
7087.37,3.85049,57.1151,18.158,9.85893,15.2484,1.25907
6164.23,3.78988,57.6653,20.0271,10.7118,16.9217,1.30162
5361.34,3.72927,58.2349,22.1059,11.6374,18.7947,1.34451
4663.02,3.66867,58.7175,24.3883,12.6638,20.8426,1.38718
4055.65,3.60806,59.1952,26.8989,13.7753,23.1039,1.42973
3527.4,3.54745,59.8502,29.6261,14.8801,25.6181,1.47167
3067.95,3.48685,60.2992,32.7033,16.2035,28.4069,1.51459
2668.35,3.42624,60.7173,36.0555,17.6354,31.4482,1.55697
2320.79,3.36564,61.0267,39.848,19.3024,34.8608,1.60041
2018.51,3.30503,61.3991,44.0196,21.0724,38.6482,1.64365
1755.6,3.24443,61.7159,48.6377,23.0467,42.8308,1.68697
1526.93,3.18382,62.106,53.6893,25.1179,47.4514,1.72989
1328.04,3.12321,62.3466,59.2157,27.4833,52.4516,1.77244
1155.06,3.0626,62.6671,65.5556,30.1005,58.2366,1.81661
1004.62,3.002,63.0405,72.4209,32.8328,64.5507,1.85986
873.764,2.94139,63.2334,80.1688,36.1046,71.5786,1.90401
759.956,2.88079,63.6005,88.4727,39.3374,79.2464,1.94681
660.971,2.82018,63.846,97.8359,43.1247,87.8187,1.9905
574.878,2.75958,64.0185,108.307,47.4472,97.3612,2.03466
500,2.69897,64.348,119.9,51.9051,108.082,2.07882
434.875,2.63836,64.5888,132.624,56.9105,119.793,2.12262
378.232,2.57776,64.8701,146.866,62.3702,132.965,2.16692
328.967,2.51715,65.1192,162.846,68.5145,147.731,2.21178
286.118,2.45655,65.3452,180.562,75.3216,164.101,2.25663
248.851,2.39594,65.5565,200.251,82.863,182.303,2.30157
216.438,2.33533,65.7802,222.041,91.0897,202.497,2.34643
188.247,2.27473,66.0092,246.543,100.242,225.245,2.39189
163.727,2.21412,66.2599,273.623,110.157,250.469,2.43715
142.402,2.15352,66.4311,304.206,121.637,278.829,2.48317
123.854,2.09291,66.6543,337.826,133.873,310.168,2.52869
107.722,2.0323,66.8977,375.037,147.155,344.962,2.57407
93.6909,1.9717,67.0472,417.594,162.85,384.532,2.62075
81.4875,1.91109,67.2301,464.177,179.651,428.002,2.66668
70.8737,1.85049,67.3937,516.124,198.396,476.469,2.71275
61.6423,1.78988,67.4923,576.678,220.757,532.752,2.76093
53.6134,1.72927,67.9213,639.287,240.296,592.407,2.8057
46.6302,1.66867,68.0706,712.539,266.108,660.983,2.85281
40.5565,1.60806,68.3328,794.323,293.275,738.199,2.9
35.274,1.54745,68.5094,883.171,323.548,821.771,2.94604
30.6795,1.48685,68.6917,983.78,357.492,916.527,2.9929
26.6835,1.42624,68.9037,1097.3,394.959,1023.75,3.04033
23.2079,1.36564,69.1058,1224.45,436.695,1143.93,3.08794
20.1851,1.30503,69.2928,1367.2,483.432,1278.88,3.13583
17.556,1.24443,69.474,1523.1,534.048,1426.4,3.18273
15.2693,1.18382,69.6821,1701.17,590.695,1595.33,3.23075
13.2804,1.12321,69.9051,1896.94,651.743,1781.46,3.27805
11.5506,1.0626,70.0878,2120.49,722.194,1993.72,3.32644
10.0462,1.002,70.3013,2373.45,800.03,2234.55,3.37538
8.73764,0.941394,70.5524,2650.58,882.496,2499.35,3.42334
7.59956,0.880788,70.6532,2959.51,980.442,2792.39,3.47122
6.60971,0.820182,70.8844,3317.26,1086.32,3134.34,3.52078
5.74879,0.759576,71.1595,3705.51,1196.64,3506.97,3.56885
5,0.69897,71.3388,4168.45,1333.78,3949.3,3.61997
4.34874,0.638363,71.5752,4651.23,1470.07,4412.81,3.66757
3.78232,0.577758,71.9074,5203.14,1615.86,4945.87,3.71627
3.28967,0.517152,72.0849,5856.11,1801.38,5572.16,3.76761
2.86118,0.456545,72.3755,6549.78,1983.12,6242.34,3.81623
2.48851,0.395939,72.5491,7389.44,2216.01,7049.33,3.86861
2.16438,0.335334,72.8187,8280.61,2446.06,7911.09,3.91806
1.88247,0.274728,73.1058,9222.84,2680.2,8824.81,3.96486
1.63727,0.21412,73.4944,10243.4,2910.25,9821.3,4.01044
1.42402,0.153516,73.5271,11626.1,3296.71,11148.9,4.06543
1.23854,0.09291,73.8071,13025.2,3632.37,12508.5,4.11478
1.07722,0.0323044,73.9118,14721.2,4079.49,14144.7,4.16794
0.936909,-0.0283026,74.3231,16343.7,4416.26,15735.7,4.21335
0.814875,-0.088909,73.9043,18714.3,5188.4,17980.7,4.27217
0.708737,-0.149515,74.1671,20991.2,5727.1,20194.8,4.32204
0.616423,-0.210121,74.595,23408.5,6218.22,22567.5,4.36937
0.536134,-0.270727,74.8031,26392.6,6918.47,25469.7,4.42148
0.466302,-0.331333,74.8117,30139.5,7896.32,29086.8,4.47914
0.405565,-0.39194,75.0787,33926.5,8735.8,32782.5,4.53054
0.35274,-0.452545,75.2698,38298,9737.95,37039.3,4.58318
0.306795,-0.513152,75.5359,43205.2,10791.5,41835.8,4.63554
0.266835,-0.573757,75.662,48920.7,12114.8,47396.9,4.68949
0.232079,-0.634364,75.4828,56526.3,14169.5,54721.6,4.75225
0.201851,-0.694969,75.7131,63810.1,15746.9,61836.6,4.80489
0.17556,-0.755574,75.6928,73273.2,18107.3,71000.7,4.86495
0.152693,-0.816181,75.8593,83351.4,20363.1,80825.7,4.92091
0.132804,-0.876789,75.8286,96832.8,23706.9,93885.9,4.98602
0.115506,-0.937395,75.9268,111808,27187.3,108452,5.04847
0.100462,-0.997998,75.8181,133837,32790.1,129758,5.12658
0.0873764,-1.05861,75.2669,162386,41297.3,157047,5.21055
0.0759956,-1.11921,75.1802,210577,53861.4,203573,5.32341
0.0660971,-1.17982,74.6887,305596,80696.7,294749,5.48515
0.0574878,-1.24042,74.1279,492837,134787,474047,5.6927
0.05,-1.30103,73.5243,790041,224062,757603,5.89765

File: Book12.csv
PVDF5-1(6),,,,,,
freq / Hz,Log(f / Hz),neg. Phase / бу,Z / Ohm,Z' / Ohm,Z'' / Ohm,Log(Z / Ohm)
50000,4.69897,45.0703,11.2394,7.93771,7.95721,1.05074
43487.4,4.63836,45.6299,12.1198,8.47528,8.66371,1.0835
37823.2,4.57776,46.507,12.7073,8.74603,9.21865,1.10405
32896.7,4.51715,47.5768,13.2036,8.90717,9.74666,1.12069
28611.8,4.45655,47.9223,13.8541,9.28417,10.283,1.14158
24885.1,4.39594,47.9856,14.7335,9.86139,10.9466,1.16831
21643.8,4.33533,48.2593,15.7342,10.4752,11.7403,1.19684
18824.7,4.27473,48.516,16.9297,11.2145,12.6828,1.22865
16372.7,4.21412,48.7855,18.2497,12.0243,13.7283,1.26126
14240.2,4.15352,49.1507,19.6845,12.8751,14.89,1.29412
12385.4,4.09291,49.4626,21.2927,13.8391,16.1821,1.32823
10772.2,4.0323,49.8035,23.0521,14.8781,17.608,1.36271
9369.09,3.9717,50.165,24.932,15.9709,19.1451,1.39676
8148.75,3.91109,50.5446,27.0219,17.1718,20.8642,1.43172
7087.37,3.85049,50.9157,29.2826,18.4616,22.7297,1.46661
6164.23,3.78988,51.2015,31.7684,19.9055,24.7589,1.502
5361.34,3.72927,51.4631,34.4998,21.494,26.986,1.53782
4663.02,3.66867,51.7438,37.4213,23.1705,29.385,1.57312
4055.65,3.60806,52.0438,40.6385,24.9951,32.0427,1.60894
3527.4,3.54745,52.2979,44.0993,26.9692,34.8914,1.64443
3067.95,3.48685,52.4433,47.9025,29.1988,37.9748,1.68036
2668.35,3.42624,52.6678,52.0002,31.5348,41.3471,1.71601
2320.79,3.36564,52.7766,56.5091,34.1837,44.9973,1.75212
2018.51,3.30503,52.8885,61.3536,37.0188,48.9273,1.78784
1755.6,3.24443,53.0089,66.668,40.1135,53.2497,1.82392
1526.93,3.18382,52.9926,72.5207,43.6516,57.912,1.86046
1328.04,3.12321,53.1699,78.9914,47.3509,63.2261,1.89758
1155.06,3.0626,53.1203,85.8044,51.4944,68.6347,1.93351
1004.62,3.002,53.0158,93.4573,56.2234,74.6538,1.97061
873.764,2.94139,52.8723,101.121,61.036,80.623,2.00484
759.956,2.88079,52.8495,110.022,66.4437,87.6936,2.04148
660.971,2.82018,52.6921,119.466,72.4083,95.0224,2.07724
574.878,2.75958,52.6172,129.744,78.7722,103.094,2.11309
500,2.69897,52.3962,140.563,85.7713,111.361,2.14787
434.875,2.63836,52.1732,152.495,93.5217,120.451,2.18326
378.232,2.57776,51.9548,165.289,101.865,130.169,2.21824
328.967,2.51715,51.7034,179.089,110.987,140.551,2.25307
286.118,2.45655,51.3682,193.729,120.948,151.336,2.28719
248.851,2.39594,51.0893,209.66,131.689,163.142,2.32152
216.438,2.33533,50.804,226.695,143.265,175.686,2.35544
188.247,2.27473,50.4665,245.07,155.994,189.011,2.38929
163.727,2.21412,50.2215,264.311,169.112,203.13,2.42212
142.402,2.15352,49.9025,284.884,183.491,217.922,2.45467
123.854,2.09291,49.5884,307.672,199.456,234.264,2.48809
107.722,2.0323,49.2679,331.621,216.39,251.292,2.52064
93.6909,1.9717,48.9242,356.867,234.482,269.021,2.55251
81.4875,1.91109,48.6834,383.934,253.48,288.362,2.58426
70.8737,1.85049,48.4643,412.355,273.427,308.665,2.61527
61.6423,1.78988,48.1002,443.122,295.93,329.822,2.64652
53.6134,1.72927,48.1777,476.719,317.887,355.259,2.67826
46.6302,1.66867,48.0212,511.456,342.09,380.213,2.70881
40.5565,1.60806,47.9676,549.453,367.887,408.115,2.73993
35.274,1.54745,47.9489,589.114,394.585,437.446,2.7702
30.6795,1.48685,47.9543,632.389,423.526,469.619,2.80098
26.6835,1.42624,48.0404,679.363,454.226,505.186,2.8321
23.2079,1.36564,48.185,730.014,486.721,544.08,2.86333
20.1851,1.30503,48.3755,784.532,521.122,586.449,2.89461
17.556,1.24443,48.5484,842.621,557.804,631.557,2.92563
15.2693,1.18382,48.7828,905.139,596.411,680.861,2.95672
13.2804,1.12321,49.0094,972.351,637.8,733.947,2.98782
11.5506,1.0626,49.3508,1047.06,682.085,794.42,3.01997
10.0462,1.002,49.7094,1131.74,731.855,863.26,3.05375
8.73764,0.941394,50.0527,1219.37,782.935,934.812,3.08614
7.59956,0.880788,50.2432,1315.1,841.044,1011,3.11896
6.60971,0.820182,50.6333,1423.25,902.742,1100.32,3.15328
5.74879,0.759576,51.0002,1537.6,967.636,1194.94,3.18684
5,0.69897,51.4172,1666.6,1039.37,1302.8,3.22183
4.34874,0.638363,51.8544,1801.57,1112.76,1416.83,3.25565
3.78232,0.577758,52.2389,1957.38,1198.64,1547.45,3.29168
3.28967,0.517152,52.5537,2125.34,1292.24,1687.36,3.32743
2.86118,0.456545,52.958,2307.85,1390.25,1842.11,3.36321
2.48851,0.395939,53.2624,2513.58,1503.5,2014.35,3.40029
2.16438,0.335334,53.6394,2726.01,1616.16,2195.26,3.43553
1.88247,0.274728,53.8869,2960.77,1745.02,2391.87,3.4714
1.63727,0.21412,54.2788,3208.34,1873.16,2604.75,3.50628
1.42402,0.153516,54.2872,3508.14,2047.78,2848.45,3.54508
1.23854,0.09291,54.3295,3841.26,2239.93,3120.58,3.58447
1.07722,0.0323044,54.6773,4164.57,2407.87,3397.91,3.61957
0.936909,-0.0283026,54.6752,4548.32,2629.89,3710.92,3.65785
0.814875,-0.088909,54.193,4993.55,2921.51,4049.73,3.69841
0.708737,-0.149515,54.2626,5441.13,3178.01,4416.58,3.73569
0.616423,-0.210121,54.3002,5938.97,3465.61,4822.96,3.77371
0.536134,-0.270727,54.1471,6501.67,3808.07,5269.75,3.81302
0.466302,-0.331333,53.9351,7111.97,4186.83,5748.96,3.85199
0.405565,-0.39194,53.7559,7756.34,4585.75,6255.53,3.88966
0.35274,-0.452545,53.4556,8473.54,5045.54,6807.61,3.92806
0.306795,-0.513152,52.9962,9270.76,5579.78,7403.58,3.96712
0.266835,-0.573757,52.6283,10099.7,6130.34,8026.37,4.00431
0.232079,-0.634364,52.1326,11018.4,6763.51,8698.31,4.04212
0.201851,-0.694969,51.4935,12023.8,7486.06,9409.08,4.08004
0.17556,-0.755574,50.832,13181.6,8325.47,10219.7,4.11997
0.152693,-0.816181,49.9635,14310.9,9205.84,10956.9,4.15567
0.132804,-0.876789,49.2298,15565.4,10164.6,11788.2,4.19216
0.115506,-0.937395,48.1636,16959.6,11312.2,12635.8,4.22942
0.100462,-0.997998,47.1295,18392.6,12513.3,13479.8,4.26464
0.0873764,-1.05861,46.1467,19997.1,13854.3,14420.2,4.30097
0.0759956,-1.11921,44.8441,21723,15402.2,15318.6,4.33692
0.0660971,-1.17982,43.3259,23465.8,17070.5,16101,4.37044
0.0574878,-1.24042,42.1049,25354.7,18811.1,17000.1,4.40406
0.05,-1.30103,40.8401,27440.6,20759.9,17944.8,4.43839

File: Book13.csv
PVDF0.45-3(4),,,,,,
freq / Hz,Log(f / Hz),neg. Phase / бу,Z / Ohm,Z' / Ohm,Z'' / Ohm,Log(Z / Ohm)
50000,4.69897,53.4046,2.38349,1.42094,1.91362,0.377213
43487.4,4.63836,47.9004,3.04084,2.03864,2.25624,0.482994
37823.2,4.57776,49.0299,3.37285,2.21146,2.54668,0.527997
32896.7,4.51715,51.5698,3.74532,2.32794,2.93395,0.573489
28611.8,4.45655,52.1233,4.36696,2.68116,3.44699,0.640179
24885.1,4.39594,51.2861,5.2152,3.26175,4.06931,0.717271
21643.8,4.33533,52.5425,6.00073,3.64948,4.76341,0.778204
18824.7,4.27473,53.7786,6.76898,3.99983,5.46081,0.830523
16372.7,4.21412,53.0441,7.80657,4.69331,6.23822,0.89246
14240.2,4.15352,54.2969,8.64998,5.048,7.02423,0.937015
12385.4,4.09291,55.0396,9.60673,5.50476,7.87317,0.982576
10772.2,4.0323,55.5427,10.6855,6.04574,8.81068,1.02879
9369.09,3.9717,56.2671,11.801,6.55337,9.81413,1.07192
8148.75,3.91109,56.7206,13.0769,7.17556,10.9323,1.1165
7087.37,3.85049,57.091,14.4591,7.8557,12.1389,1.16014
6164.23,3.78988,57.4415,15.9545,8.58609,13.4471,1.20288
5361.34,3.72927,57.7417,17.623,9.40605,14.9029,1.24608
4663.02,3.66867,58.063,19.4491,10.2883,16.5051,1.2889
4055.65,3.60806,58.4175,21.4463,11.232,18.2698,1.33135
3527.4,3.54745,58.7078,23.6522,12.285,20.2115,1.37387
3067.95,3.48685,59.0097,26.0239,13.3995,22.3091,1.41537
2668.35,3.42624,59.2685,28.7103,14.6714,24.6785,1.45804
2320.79,3.36564,59.5671,31.6231,16.018,27.2662,1.5
2018.51,3.30503,59.8451,34.8122,17.4875,30.1011,1.54173
1755.6,3.24443,60.1098,38.3662,19.1194,33.2628,1.58395
1526.93,3.18382,60.363,42.2849,20.91,36.753,1.62619
1328.04,3.12321,60.6258,46.6472,22.881,40.65,1.66883
1155.06,3.0626,61.0082,51.2812,24.8552,44.8551,1.70996
1004.62,3.002,61.1834,56.5237,27.2449,49.5242,1.75223
873.764,2.94139,61.4565,62.3305,29.7831,54.7545,1.7947
759.956,2.88079,61.578,68.9149,32.8009,60.6083,1.83831
660.971,2.82018,61.8301,75.99,35.8739,66.9891,1.88076
574.878,2.75958,62.092,83.9178,39.2779,74.1582,1.92385
500,2.69897,62.3092,92.7,43.0777,82.0828,1.96708
434.875,2.63836,62.5611,102.344,47.1602,90.8302,2.01006
378.232,2.57776,62.7753,112.962,51.6782,100.448,2.05293
328.967,2.51715,62.9649,124.729,56.6939,111.1,2.09597
286.118,2.45655,63.1706,137.936,62.2553,123.088,2.13968
248.851,2.39594,63.3644,152.557,68.3937,136.367,2.18343
216.438,2.33533,63.5244,168.758,75.2351,151.06,2.22726
188.247,2.27473,63.7997,186.784,82.4673,167.593,2.27134
163.727,2.21412,63.9702,206.607,90.6671,185.65,2.31515
142.402,2.15352,64.2106,228.65,99.4775,205.876,2.35917
123.854,2.09291,64.3896,252.487,109.137,227.681,2.40224
107.722,2.0323,64.5769,277.815,119.266,250.912,2.44376
93.6909,1.9717,64.8536,308.047,130.899,278.852,2.48862
81.4875,1.91109,64.9528,341.82,144.714,309.675,2.5338
70.8737,1.85049,65.252,378.834,158.59,344.041,2.57845
61.6423,1.78988,65.4202,422.155,175.6,383.901,2.62547
53.6134,1.72927,65.8107,467.642,191.618,426.582,2.66991
46.6302,1.66867,66.1391,518.852,209.885,474.506,2.71504
40.5565,1.60806,66.4995,577.15,230.143,529.279,2.76129
35.274,1.54745,66.8503,639.818,251.535,588.301,2.80606
30.6795,1.48685,67.1862,710.613,275.531,655.021,2.85163
26.6835,1.42624,67.5635,791.267,301.995,731.37,2.89832
23.2079,1.36564,67.9583,881.656,330.868,817.217,2.9453
20.1851,1.30503,68.3077,982.783,363.258,913.185,2.99246
17.556,1.24443,68.7145,1093.47,396.948,1018.88,3.03881
15.2693,1.18382,69.0719,1219,435.421,1138.58,3.086
13.2804,1.12321,69.474,1358.38,476.29,1272.14,3.13302
11.5506,1.0626,69.8715,1518.42,522.527,1425.68,3.18139
10.0462,1.002,70.3129,1699.38,572.49,1600.04,3.23029
8.73764,0.941394,70.6825,1899.99,628.522,1793.02,3.27875
7.59956,0.880788,70.9436,2125.51,693.977,2009.03,3.32746
6.60971,0.820182,71.3684,2383.41,761.456,2258.51,3.3772
5.74879,0.759576,71.7673,2666.51,834.288,2532.63,3.42594
5,0.69897,72.1599,2993.25,917.014,2849.32,3.47614
4.34874,0.638363,72.4864,3358.36,1010.64,3202.68,3.52613
3.78232,0.577758,72.778,3775.94,1117.96,3606.64,3.57703
3.28967,0.517152,73.2083,4238.71,1224.54,4057.98,3.62723
2.86118,0.456545,73.4769,4761.7,1354.23,4565.06,3.67776
2.48851,0.395939,73.7462,5377.83,1505.21,5162.89,3.73061
2.16438,0.335334,74.0526,6047.51,1661.58,5814.77,3.78158
1.88247,0.274728,74.6042,6665.83,1769.68,6426.62,3.82385
1.63727,0.21412,74.7024,7558.18,1994.1,7290.38,3.87842
1.42402,0.153516,74.8461,8563.76,2238.67,8265.98,3.93266
1.23854,0.09291,75.1366,9613.21,2465.94,9291.56,3.98287
1.07722,0.0323044,75.0452,10993.1,2836.85,10620.8,4.04112
0.936909,-0.0283026,75.3167,12311.7,3120.73,11909.6,4.09032
0.814875,-0.088909,75.2793,13836.8,3516.03,13382.6,4.14104
0.708737,-0.149515,75.3728,15686.2,3961.21,15177.8,4.19552
0.616423,-0.210121,75.7108,17536,4328.17,16993.5,4.24393
0.536134,-0.270727,75.8222,19887,4870.97,19281.3,4.29857
0.466302,-0.331333,76.0592,22386.1,5393.25,21726.7,4.34998
0.405565,-0.39194,76.1066,25417.5,6103.14,24673.9,4.40513
0.35274,-0.452545,76.1953,28746.3,6859.25,27916,4.45858
0.306795,-0.513152,76.2505,32695.2,7770.94,31758.3,4.51448
0.266835,-0.573757,76.2295,37154,8843.91,36086.1,4.57001
0.232079,-0.634364,76.3291,42077.3,9944.73,40885.2,4.62405
0.201851,-0.694969,76.2319,48177.5,11465.9,46793.2,4.68284
0.17556,-0.755574,76.3996,54252.3,12757.4,52731,4.73442
0.152693,-0.816181,76.2332,62630.5,14904.2,60831.3,4.79679
0.132804,-0.876789,76.1429,71771.9,17189.5,69683.1,4.85595
0.115506,-0.937395,76.0285,83070.2,20056.4,80612.6,4.91945
0.100462,-0.997998,76.0273,96362.6,23267.6,93511.3,4.98391
0.0873764,-1.05861,75.3272,113741,28810.5,110032,5.05592
0.0759956,-1.11921,75.1464,156585,40140.6,151352,5.19475
0.0660971,-1.17982,72.3481,422588,128143,402691,5.62592
0.0574878,-1.24042,71.74,1220690,382479,1159220,6.08661
0.05,-1.30103,64.3839,2959850,1279660,2668930,6.47127