Folder: hte-data-processing/membrane conductivity analysis/EIS data (part 6)

File: Book23.csv
I-16-3,,,,,,
freq / Hz,Log(f / Hz),neg. Phase / бу,Z / Ohm,Z' / Ohm,Z'' / Ohm,Log(Z / Ohm)
50000,4.69897,17.8559,23.285,22.1633,7.13974,1.36708
43487.4,4.63836,18.5066,23.3855,22.1762,7.42288,1.36895
37823.2,4.57776,19.0472,24.0353,22.7194,7.84386,1.38085
32896.7,4.51715,20.0937,24.4361,22.9488,8.3952,1.38803
28611.8,4.45655,20.9871,25.0372,23.3762,8.96725,1.39859
24885.1,4.39594,21.7304,25.9552,24.1108,9.60964,1.41422
21643.8,4.33533,22.8322,26.664,24.5747,10.3465,1.42593
18824.7,4.27473,24.352,26.8725,24.4816,11.0806,1.42931
16372.7,4.21412,25.3397,27.9169,25.2309,11.948,1.44587
14240.2,4.15352,26.5101,28.8323,25.8008,12.8695,1.45988
12385.4,4.09291,27.61,29.8985,26.4937,13.8565,1.47565
10772.2,4.0323,28.6027,31.3035,27.4832,14.986,1.49559
9369.09,3.9717,29.8966,32.6018,28.2633,16.2499,1.51324
8148.75,3.91109,30.9984,34.1661,29.2866,17.596,1.5336
7087.37,3.85049,31.7001,36.3711,30.9449,19.112,1.56076
6164.23,3.78988,33.3443,37.7459,31.5322,20.7477,1.57687
5361.34,3.72927,34.5165,39.8849,32.8637,22.6005,1.60081
4663.02,3.66867,35.5901,42.2117,34.3266,24.5665,1.62543
4055.65,3.60806,36.3135,45.1523,36.3832,26.7393,1.65468
3527.4,3.54745,37.1217,48.3066,38.5175,29.1535,1.68401
3067.95,3.48685,37.7404,51.657,40.85,31.6185,1.71313
2668.35,3.42624,38.0375,55.9069,44.0327,34.4486,1.74747
2320.79,3.36564,39.4654,59.125,45.6449,37.5806,1.77177
2018.51,3.30503,40.7653,62.6285,47.4342,40.8941,1.79677
1755.6,3.24443,42.432,66.2038,48.8637,44.6687,1.82088
1526.93,3.18382,43.7224,70.4818,50.937,48.7146,1.84808
1328.04,3.12321,42.8352,77.9515,57.1628,52.9986,1.89182
1155.06,3.0626,43.6246,83.9827,60.793,57.9422,1.92419
1004.62,3.002,45.1739,88.7253,62.5475,62.9284,1.94805
873.764,2.94139,46.4364,95.1146,65.5491,68.9209,1.97825
759.956,2.88079,46.7669,103.064,70.5954,75.0896,2.01311
660.971,2.82018,47.1864,111.36,75.6819,81.6902,2.04673
574.878,2.75958,48.402,119.216,79.1476,89.1523,2.07633
500,2.69897,48.6382,128.757,85.0843,96.6389,2.10977
434.875,2.63836,48.6043,140.251,92.742,105.211,2.14691
378.232,2.57776,49.1784,151.364,98.9473,114.544,2.18002
328.967,2.51715,50.1506,162.609,104.195,124.84,2.21114
286.118,2.45655,50.2212,176.843,113.148,135.907,2.24759
248.851,2.39594,50.4073,191.845,122.268,147.835,2.28295
216.438,2.33533,50.9183,207.115,130.571,160.772,2.31621
188.247,2.27473,51.0161,224.689,141.352,174.656,2.35158
163.727,2.21412,51.2959,243.134,152.031,189.738,2.38585
142.402,2.15352,51.5336,262.955,163.572,205.886,2.41988
123.854,2.09291,51.6979,284.429,176.291,223.207,2.45397
107.722,2.0323,51.8869,307.877,190.026,242.235,2.48838
93.6909,1.9717,51.9161,334.143,206.104,263.006,2.52393
81.4875,1.91109,51.9915,361.832,222.808,285.095,2.55851
70.8737,1.85049,52.0359,391.586,240.891,308.725,2.59283
61.6423,1.78988,52.2835,424.276,259.553,335.622,2.62765
53.6134,1.72927,52.2012,458.891,281.25,362.601,2.66171
46.6302,1.66867,52.3214,496.954,303.754,393.315,2.69632
40.5565,1.60806,52.4607,537.623,327.577,426.3,2.73048
35.274,1.54745,52.5779,581.582,353.417,461.881,2.76461
30.6795,1.48685,52.6978,628.772,381.048,500.157,2.79849
26.6835,1.42624,52.8859,681.591,411.275,543.524,2.83352
23.2079,1.36564,53.0965,738.482,443.436,590.525,2.86834
20.1851,1.30503,53.3138,801.058,478.577,642.384,2.90366
17.556,1.24443,53.537,867.779,515.725,697.903,2.93841
15.2693,1.18382,53.87,941.924,555.376,760.775,2.97402
13.2804,1.12321,54.2456,1022.37,597.384,829.686,3.00961
11.5506,1.0626,54.5752,1111.15,644.062,905.454,3.04577
10.0462,1.002,54.7988,1209.12,696.998,988.012,3.08247
8.73764,0.941394,55.235,1314.3,749.427,1079.69,3.11869
7.59956,0.880788,55.4999,1431.34,810.723,1179.6,3.15574
6.60971,0.820182,55.8628,1565.84,878.712,1296.04,3.19475
5.74879,0.759576,56.168,1707.55,950.697,1418.42,3.23237
5,0.69897,56.4604,1868.3,1032.26,1557.23,3.27145
4.34874,0.638363,56.741,2039.58,1118.55,1705.49,3.30954
3.78232,0.577758,56.903,2236.29,1221.15,1873.45,3.34953
3.28967,0.517152,57.1293,2454.29,1332.05,2061.35,3.38993
2.86118,0.456545,57.15,2692.84,1460.71,2262.24,3.43021
2.48851,0.395939,57.1329,2961.91,1607.41,2487.8,3.47157
2.16438,0.335334,57.0415,3248.51,1767.3,2725.71,3.51168
1.88247,0.274728,57.0149,3555.18,1935.51,2982.13,3.55086
1.63727,0.21412,56.146,3934.02,2191.56,3267.04,3.59484
1.42402,0.153516,55.9722,4284.75,2397.72,3551.05,3.63193
1.23854,0.09291,55.5205,4698.82,2660.05,3873.37,3.67199
1.07722,0.0323044,54.376,5193.03,3024.75,4221.19,3.71542
0.936909,-0.0283026,53.7855,5647.7,3336.72,4556.63,3.75187
0.814875,-0.088909,52.5543,6180.11,3757.56,4906.57,3.791
0.708737,-0.149515,52.6824,6710.25,4067.97,5336.58,3.82674
0.616423,-0.210121,50.462,7272.63,4629.68,5608.67,3.86169
0.536134,-0.270727,49.2556,7891.53,5150.69,5978.85,3.89716
0.466302,-0.331333,47.8836,8568.53,5746.4,6356,3.93291
0.405565,-0.39194,46.3525,9225.21,6367.42,6675.36,3.96498
0.35274,-0.452545,44.8717,9918.58,7029.19,6997.77,3.99645
0.306795,-0.513152,43.4089,10678.9,7757.91,7338.58,4.02853
0.266835,-0.573757,41.8361,11399.4,8493.23,7603.45,4.05688
0.232079,-0.634364,40.2822,12198.7,9305.97,7887.08,4.08631
0.201851,-0.694969,39.1548,13065.8,10131.8,8250.01,4.11614
0.17556,-0.755574,37.0582,13688,10923.4,8248.75,4.13634
0.152693,-0.816181,35.9003,14522.3,11763.6,8515.52,4.16204
0.132804,-0.876789,34.5301,15521,12786.7,8797.93,4.19092
0.115506,-0.937395,33.8526,17409.1,14457.8,9697.89,4.24078
0.100462,-0.997998,32.515,18934.6,15966.7,10177.7,4.27726
0.0873764,-1.05861,31.7781,20799.8,17681.8,10953.8,4.31806
0.0759956,-1.11921,29.5771,21780.1,18942,10750.5,4.33806
0.0660971,-1.17982,28.4936,22741.4,19986.8,10849,4.35682
0.0574878,-1.24042,28.0048,24411.1,21552.8,11462.1,4.38759
0.05,-1.30103,26.0549,25324.1,22750.5,11123.1,4.40353

File: Book24.csv
PVDF0.2-2(3),,,,,,
freq / Hz,Log(f / Hz),neg. Phase / бу,Z / Ohm,Z' / Ohm,Z'' / Ohm,Log(Z / Ohm)
50000,4.69897,50.9128,4.37318,2.7573,3.39441,0.640797
43487.4,4.63836,51.2144,5.16744,3.23693,4.028,0.713275
37823.2,4.57776,52.2981,5.92593,3.62402,4.68861,0.772757
32896.7,4.51715,52.0617,6.86521,4.22082,5.4144,0.836654
28611.8,4.45655,52.6596,7.75804,4.70563,6.16799,0.889752
24885.1,4.39594,52.9043,8.73985,5.27143,6.97116,0.941504
21643.8,4.33533,51.5393,10.0338,6.24081,7.85681,1.00147
18824.7,4.27473,52.6097,11.0061,6.68338,8.74456,1.04163
16372.7,4.21412,53.2467,12.1347,7.26107,9.72256,1.08403
14240.2,4.15352,53.668,13.3733,7.9232,10.7735,1.12624
12385.4,4.09291,54.0536,14.7362,8.65058,11.93,1.16839
10772.2,4.0323,54.2789,16.2418,9.48261,13.1862,1.21063
9369.09,3.9717,54.5789,17.836,10.3374,14.5348,1.2513
8148.75,3.91109,55.1161,19.5517,11.1819,16.0385,1.29118
7087.37,3.85049,55.6455,21.3598,12.0536,17.6338,1.3296
6164.23,3.78988,55.9395,23.4508,13.1341,19.4278,1.37016
5361.34,3.72927,56.2601,25.7217,14.2865,21.3894,1.4103
4663.02,3.66867,56.5423,28.1964,15.5453,23.524,1.45019
4055.65,3.60806,56.8278,30.9118,16.9136,25.8741,1.49012
3527.4,3.54745,57.0546,33.9054,18.4391,28.4531,1.53027
3067.95,3.48685,57.345,37.1801,20.0616,31.3032,1.57031
2668.35,3.42624,57.6813,40.7308,21.7758,34.4211,1.60992
2320.79,3.36564,57.9674,44.6918,23.7046,37.8874,1.65023
2018.51,3.30503,58.2401,48.9779,25.7801,41.644,1.69
1755.6,3.24443,58.5556,53.688,28.0074,45.8038,1.72988
1526.93,3.18382,58.8552,58.9514,30.4898,50.4544,1.77049
1328.04,3.12321,59.0341,64.763,33.3224,55.5326,1.81133
1155.06,3.0626,59.3834,71.2321,36.2779,61.3019,1.85268
1004.62,3.002,59.542,78.0905,39.5846,67.3141,1.8926
873.764,2.94139,59.8259,86.0016,43.227,74.3485,1.93451
759.956,2.88079,59.9889,94.4621,47.2468,81.7974,1.97526
660.971,2.82018,60.2709,103.935,51.5414,90.2553,2.01676
574.878,2.75958,60.4525,114.522,56.4757,99.6278,2.05889
500,2.69897,60.7557,125.578,61.349,109.572,2.09891
434.875,2.63836,60.9768,138.296,67.0961,120.929,2.14081
378.232,2.57776,61.1541,152.424,73.538,133.511,2.18305
328.967,2.51715,61.3356,167.796,80.4883,147.232,2.22478
286.118,2.45655,61.5014,184.928,88.2359,162.52,2.267
248.851,2.39594,61.6689,203.992,96.8076,179.558,2.30961
216.438,2.33533,61.8016,225.02,106.328,198.314,2.35222
188.247,2.27473,61.9751,248.253,116.643,219.144,2.39489
163.727,2.21412,62.1051,273.856,128.124,242.035,2.43752
142.402,2.15352,62.1662,302.084,141.046,267.135,2.48013
123.854,2.09291,62.3723,333.781,154.782,295.723,2.52346
107.722,2.0323,62.4218,368.208,170.465,326.373,2.56609
93.6909,1.9717,62.5528,406.174,187.218,360.453,2.60871
81.4875,1.91109,62.5988,448.383,206.355,398.077,2.65165
70.8737,1.85049,62.7229,494.631,226.687,439.628,2.69428
61.6423,1.78988,62.6732,548.209,251.664,487.03,2.73895
53.6134,1.72927,63.0876,604.101,273.432,538.677,2.78111
46.6302,1.66867,63.2728,665.937,299.501,594.787,2.82343
40.5565,1.60806,63.474,736.192,328.786,658.694,2.86699
35.274,1.54745,63.6347,811.307,360.295,726.915,2.90919
30.6795,1.48685,63.8747,895.255,394.213,803.789,2.95195
26.6835,1.42624,64.1557,990.108,431.614,891.08,2.99568
23.2079,1.36564,64.4169,1094.82,472.765,987.485,3.03934
20.1851,1.30503,64.6996,1211.93,517.934,1095.68,3.08348
17.556,1.24443,65.0087,1338.81,565.62,1213.46,3.12672
15.2693,1.18382,65.3812,1481.66,617.227,1346.97,3.17075
13.2804,1.12321,65.7346,1641.16,674.459,1496.17,3.21515
11.5506,1.0626,66.1371,1820.74,736.58,1665.1,3.26025
10.0462,1.002,66.5757,2021.75,803.719,1855.13,3.30573
8.73764,0.941394,66.9592,2245.69,878.933,2066.54,3.35135
7.59956,0.880788,67.3658,2489.72,958.16,2297.97,3.39615
6.60971,0.820182,67.7921,2775.04,1048.88,2569.18,3.44327
5.74879,0.759576,68.1971,3089.29,1147.4,2868.3,3.48986
5,0.69897,68.6838,3439.75,1250.4,3204.43,3.53653
4.34874,0.638363,69.0781,3834.57,1369.31,3581.75,3.58372
3.78232,0.577758,69.5148,4281.73,1498.46,4010.97,3.63162
3.28967,0.517152,69.964,4776.94,1636.63,4487.83,3.67915
2.86118,0.456545,70.2924,5343.25,1801.85,5030.27,3.72781
2.48851,0.395939,70.7354,5980.28,1973.09,5645.42,3.77672
2.16438,0.335334,71.0932,6678.5,2164.03,6318.17,3.82468
1.88247,0.274728,71.4637,7427.91,2361.37,7042.57,3.87087
1.63727,0.21412,71.7089,8339.12,2617.19,7917.78,3.92112
1.42402,0.153516,71.958,9342.42,2893.48,8883.05,3.97046
1.23854,0.09291,72.046,10626.8,3275.75,10109.4,4.0264
1.07722,0.0323044,72.4032,11822.5,3574.16,11269.3,4.07271
0.936909,-0.0283026,72.8551,13132.4,3871.28,12548.8,4.11834
0.814875,-0.088909,72.775,14728.1,4361.36,14067.5,4.16815
0.708737,-0.149515,72.9935,16563.3,4844.44,15839,4.21915
0.616423,-0.210121,73.2686,18609.4,5357.35,17821.5,4.26973
0.536134,-0.270727,73.4841,20930.5,5950.14,20066.9,4.32078
0.466302,-0.331333,73.6329,23651.1,6664.66,22692.6,4.37385
0.405565,-0.39194,73.8501,26504.3,7372.2,25458.4,4.42332
0.35274,-0.452545,74.0192,29779.7,8198.83,28628.9,4.47392
0.306795,-0.513152,74.2545,33386.6,9059.92,32133.8,4.52357
0.266835,-0.573757,74.1122,37999.8,10402.6,36548.2,4.57978
0.232079,-0.634364,74.4418,42454.3,11387,40898.7,4.62792
0.201851,-0.694969,74.2287,48640.9,13220.5,46809.8,4.687
0.17556,-0.755574,74.4379,54369.1,14586.3,52375.9,4.73535
0.152693,-0.816181,74.5333,61484.9,16396.7,59258.3,4.78877
0.132804,-0.876789,74.3714,70411.3,18968.9,67808.1,4.84764
0.115506,-0.937395,74.3356,80112,21630.4,77136.6,4.9037
0.100462,-0.997998,74.4312,90892.2,24395,87557.3,4.95853
0.0873764,-1.05861,74.3322,103563,27968.1,99714.9,5.0152
0.0759956,-1.11921,74.1272,119959,32809.3,115385,5.07903
0.0660971,-1.17982,73.896,138956,38544,133504,5.14288
0.0574878,-1.24042,73.7942,165651,46231.4,159069,5.21919
0.05,-1.30103,73.3002,213863,61455,204843,5.33014