Folder: hte-data-processing/membrane conductivity analysis/EIS data (part 2)

File: Book6.csv
Sartorius_CelluloseNitrate0.45-1(2),,,,,,
freq / Hz,Log(f / Hz),neg. Phase / бу,Z / Ohm,Z' / Ohm,Z'' / Ohm,Log(Z / Ohm)
50000,4.69897,51.2184,3.42253,2.14371,2.668,0.534347
43487.4,4.63836,50.3821,4.0125,2.55863,3.09089,0.603415
37823.2,4.57776,49.9711,4.68601,3.01392,3.58817,0.670803
32896.7,4.51715,50.0303,5.35942,3.4428,4.10738,0.729118
28611.8,4.45655,47.1329,6.43076,4.37484,4.71332,0.808262
24885.1,4.39594,46.2105,7.32663,5.0701,5.289,0.864904
21643.8,4.33533,46.7027,8.04072,5.5142,5.85207,0.905295
18824.7,4.27473,47.0131,8.80586,6.00411,6.44158,0.944772
16372.7,4.21412,47.1139,9.67413,6.58366,7.08831,0.985612
14240.2,4.15352,47.6207,10.5164,7.08845,7.76849,1.02187
12385.4,4.09291,47.9157,11.4257,7.65775,8.47968,1.05788
10772.2,4.0323,48.2628,12.432,8.27615,9.27681,1.09454
9369.09,3.9717,48.6087,13.4888,8.91876,10.1194,1.12997
8148.75,3.91109,48.9767,14.6409,9.60977,11.0457,1.16557
7087.37,3.85049,49.3584,15.8672,10.3347,12.04,1.2005
6164.23,3.78988,49.6458,17.1901,11.1308,13.0998,1.23528
5361.34,3.72927,49.9837,18.6492,11.9915,14.2827,1.27066
4663.02,3.66867,50.3231,20.1765,12.8818,15.529,1.30485
4055.65,3.60806,50.6651,21.8851,13.8719,16.9271,1.34015
3527.4,3.54745,50.9833,23.7281,14.938,18.4358,1.37526
3067.95,3.48685,51.2653,25.7211,16.0941,20.0637,1.41029
2668.35,3.42624,51.5936,27.8862,17.3239,21.8523,1.44539
2320.79,3.36564,51.9038,30.2156,18.6425,23.7789,1.48023
2018.51,3.30503,52.2248,32.7672,20.0721,25.8999,1.51544
1755.6,3.24443,52.5324,35.566,21.6352,28.2286,1.55104
1526.93,3.18382,52.8527,38.6191,23.3207,30.7827,1.5868
1328.04,3.12321,53.0589,41.9613,25.2185,33.5378,1.62285
1155.06,3.0626,53.2026,45.5477,27.2825,36.4727,1.65847
1004.62,3.002,53.5347,49.4606,29.3962,39.777,1.69426
873.764,2.94139,53.5847,53.6839,31.8686,43.2014,1.72984
759.956,2.88079,53.7329,58.4064,34.5503,47.0912,1.76646
660.971,2.82018,53.8487,63.5531,37.4912,51.3168,1.80314
574.878,2.75958,54.0084,69.1139,40.6159,55.9203,1.83957
500,2.69897,54.0996,75.0597,44.0134,60.8011,1.87541
434.875,2.63836,54.1879,81.6316,47.7651,66.1984,1.91186
378.232,2.57776,54.2796,88.8323,51.863,72.1207,1.94857
328.967,2.51715,54.3518,96.6797,56.3457,78.563,1.98534
286.118,2.45655,54.3823,105.088,61.2007,85.4284,2.02155
248.851,2.39594,54.4153,114.325,66.5262,92.9753,2.05814
216.438,2.33533,54.4182,124.253,72.2985,101.053,2.09431
188.247,2.27473,54.4667,135.277,78.62,110.086,2.13122
163.727,2.21412,54.4311,147.062,85.5431,119.622,2.1675
142.402,2.15352,54.4355,159.995,93.0561,130.15,2.20411
123.854,2.09291,54.4393,174.011,101.199,141.558,2.24058
107.722,2.0323,54.4496,189.221,110.017,153.951,2.27697
93.6909,1.9717,54.513,205.733,119.432,167.518,2.3133
81.4875,1.91109,54.3687,223.576,130.248,181.718,2.34943
70.8737,1.85049,54.3653,242.639,141.365,197.204,2.38496
61.6423,1.78988,54.4799,264.238,153.519,215.067,2.422
53.6134,1.72927,54.4793,286.587,166.506,233.255,2.45726
46.6302,1.66867,54.5893,311.236,180.34,253.663,2.49309
40.5565,1.60806,54.6774,338.314,195.606,276.034,2.52932
35.274,1.54745,54.854,367.153,211.356,300.217,2.56485
30.6795,1.48685,55.0164,398.899,228.706,326.825,2.60086
26.6835,1.42624,55.171,433.777,247.742,356.071,2.63727
23.2079,1.36564,55.3649,472.404,268.489,388.688,2.67431
20.1851,1.30503,55.5914,514.935,290.985,424.836,2.71175
17.556,1.24443,55.854,560.387,314.548,463.782,2.74849
15.2693,1.18382,56.1854,612.075,340.624,508.538,2.7868
13.2804,1.12321,56.5768,669.002,368.499,558.366,2.82543
11.5506,1.0626,56.8542,731.656,400.049,612.602,2.86431
10.0462,1.002,57.1455,800.384,434.215,672.363,2.9033
8.73764,0.941394,57.4507,873.69,470.067,736.459,2.94136
7.59956,0.880788,57.6913,953.366,509.556,805.767,2.97926
6.60971,0.820182,58.0008,1044.65,553.567,885.92,3.01897
5.74879,0.759576,58.3217,1143.56,600.541,973.183,3.05826
5,0.69897,58.4415,1254.59,656.615,1069.05,3.0985
4.34874,0.638363,58.6785,1372.53,713.497,1172.51,3.13752
3.78232,0.577758,58.8307,1503.52,778.176,1286.48,3.17711
3.28967,0.517152,59.0181,1653.87,851.355,1417.91,3.2185
2.86118,0.456545,59.3245,1818.33,927.667,1563.89,3.25967
2.48851,0.395939,59.6041,2012.97,1018.51,1736.29,3.30384
2.16438,0.335334,59.7645,2225.97,1120.9,1923.15,3.34752
1.88247,0.274728,59.9206,2436.41,1221.13,2108.3,3.38675
1.63727,0.21412,59.715,2689.3,1356.22,2322.29,3.42964
1.42402,0.153516,59.9141,2940.51,1474.07,2544.35,3.46842
1.23854,0.09291,59.8418,3233.1,1624.27,2795.47,3.50962
1.07722,0.0323044,59.7662,3565.8,1795.49,3080.77,3.55216
0.936909,-0.0283026,59.7691,3904.48,1965.85,3373.48,3.59156
0.814875,-0.088909,59.2416,4293.26,2195.66,3689.33,3.63279
0.708737,-0.149515,59.2731,4712.73,2407.95,4051.12,3.67327
0.616423,-0.210121,59.1473,5206.16,2669.89,4469.43,3.71652
0.536134,-0.270727,59.0799,5745.48,2952.27,4928.96,3.75933
0.466302,-0.331333,59.1119,6385.24,3277.94,5479.63,3.80518
0.405565,-0.39194,58.8051,7017.84,3634.89,6003.13,3.8462
0.35274,-0.452545,58.904,7890.52,4075.25,6756.67,3.89711
0.306795,-0.513152,58.5498,8744.56,4562.54,7459.93,3.94174
0.266835,-0.573757,57.9975,9626.25,5101.5,8163.3,3.98346
0.232079,-0.634364,57.7768,10591.9,5647.79,8960.47,4.02497
0.201851,-0.694969,57.4381,11824.8,6364.22,9966.05,4.07279
0.17556,-0.755574,57.0168,13240.1,7207.84,11106.2,4.12189
0.152693,-0.816181,56.461,14537.5,8032.01,12117.1,4.16249
0.132804,-0.876789,54.1406,15774.1,9240.45,12784.2,4.19794
0.115506,-0.937395,53.9619,17887.9,10523.9,14464.6,4.25256
0.100462,-0.997998,53.2017,20100.3,12040.1,16095.3,4.3032
0.0873764,-1.05861,47.7333,23530.9,15826.5,17413.4,4.37164
0.0759956,-1.11921,63.8409,43332,19103.6,38893.6,4.63681
0.0660971,-1.17982,56.0823,51831.5,28922,43011.8,4.71459
0.0574878,-1.24042,56.2973,53578.1,29729.6,44573.1,4.72899
0.05,-1.30103,57.6968,64592.9,34518.4,54596,4.81018

File: Book7.csv
PW-3,,,,,,
freq / Hz,Log(f / Hz),neg. Phase / бу,Z / Ohm,Z' / Ohm,Z'' / Ohm,Log(Z / Ohm)
50000,4.69897,12.455,13.497,13.1793,2.91094,1.13024
43487.4,4.63836,13.0816,13.8704,13.5105,3.13941,1.14209
37823.2,4.57776,13.7445,14.1364,13.7316,3.35871,1.15034
32896.7,4.51715,14.5167,14.2171,13.7632,3.56369,1.15281
28611.8,4.45655,15.2601,14.4106,13.9025,3.7929,1.15868
24885.1,4.39594,15.2155,15.4588,14.9169,4.05717,1.18918
21643.8,4.33533,15.9183,15.7047,15.1025,4.30728,1.19603
18824.7,4.27473,16.588,16.0415,15.3739,4.57965,1.20524
16372.7,4.21412,17.2124,16.5023,15.7632,4.88327,1.21754
14240.2,4.15352,18.1716,16.7126,15.8791,5.21206,1.22304
12385.4,4.09291,19.1021,17.0233,16.0859,5.57091,1.23104
10772.2,4.0323,19.928,17.5338,16.4839,5.97621,1.24388
9369.09,3.9717,20.7913,18.0985,16.9199,6.42433,1.25764
8148.75,3.91109,21.6832,18.7064,17.3827,6.91153,1.27199
7087.37,3.85049,22.5716,19.3704,17.8866,7.43508,1.28714
6164.23,3.78988,23.5017,20.093,18.4262,8.01259,1.30304
5361.34,3.72927,24.4636,20.8514,18.9794,8.63487,1.31914
4663.02,3.66867,25.4909,21.6933,19.5815,9.33611,1.33633
4055.65,3.60806,26.4873,22.6243,20.2495,10.0904,1.35458
3527.4,3.54745,27.4849,23.6035,20.9394,10.8933,1.37298
3067.95,3.48685,28.4967,24.7252,21.7296,11.7966,1.39314
2668.35,3.42624,29.5487,25.8695,22.5048,12.7579,1.41279
2320.79,3.36564,30.5956,27.1821,23.3979,13.835,1.43428
2018.51,3.30503,31.6454,28.582,24.3322,14.9959,1.45609
1755.6,3.24443,32.5842,30.1202,25.3793,16.2209,1.47886
1526.93,3.18382,33.6176,31.7528,26.4422,17.5798,1.50178
1328.04,3.12321,34.5415,33.5732,27.6547,19.0361,1.52599
1155.06,3.0626,35.4238,35.5629,28.9797,20.613,1.551
1004.62,3.002,36.3368,37.7261,30.3901,22.3539,1.57664
873.764,2.94139,37.1983,40.103,31.944,24.2453,1.60318
759.956,2.88079,37.9636,42.6074,33.5917,26.2104,1.62949
660.971,2.82018,38.7608,45.4122,35.4109,28.4313,1.65717
574.878,2.75958,39.442,48.4201,37.3933,30.7611,1.68503
500,2.69897,40.0261,51.6909,39.5824,33.2443,1.71341
434.875,2.63836,40.603,55.2787,41.9696,35.9762,1.74256
378.232,2.57776,41.1576,59.088,44.4875,38.8877,1.7715
328.967,2.51715,41.6398,63.2766,47.289,42.0438,1.80124
286.118,2.45655,42.0784,67.7009,50.2495,45.3696,1.83059
248.851,2.39594,42.428,72.5024,53.5159,48.9147,1.86035
216.438,2.33533,42.7622,77.665,57.02,52.7312,1.89023
188.247,2.27473,43.0467,83.208,60.8083,56.7973,1.92017
163.727,2.21412,43.2536,89.1527,64.9324,61.09,1.95013
142.402,2.15352,43.5189,95.5334,69.2758,65.7837,1.98016
123.854,2.09291,43.6578,102.405,74.0873,70.695,2.01032
107.722,2.0323,43.8076,109.589,79.0867,75.8616,2.03977
93.6909,1.9717,43.9457,117.556,84.6399,81.5809,2.07024
81.4875,1.91109,43.9155,125.857,90.6626,87.294,2.09988
70.8737,1.85049,44.0692,134.794,96.8492,93.7525,2.12967
61.6423,1.78988,44.2081,144.175,103.347,100.529,2.15889
53.6134,1.72927,44.3234,154.562,110.575,107.994,2.1891
46.6302,1.66867,44.4284,165.439,118.144,115.81,2.21864
40.5565,1.60806,44.5846,177.108,126.139,124.323,2.24824
35.274,1.54745,44.7251,189.18,134.41,133.127,2.27688
30.6795,1.48685,44.8882,202.281,143.313,142.755,2.30596
26.6835,1.42624,45.0492,216.542,152.986,153.25,2.33554
23.2079,1.36564,45.3024,231.92,163.125,164.856,2.36534
20.1851,1.30503,45.517,248.434,174.077,177.247,2.39521
17.556,1.24443,45.7173,265.912,185.66,190.368,2.42474
15.2693,1.18382,45.99,284.721,197.819,204.777,2.45442
13.2804,1.12321,46.2345,305.048,211.004,220.298,2.48437
11.5506,1.0626,46.5042,327.274,225.263,237.413,2.51491
10.0462,1.002,46.8305,351.23,240.297,256.164,2.54559
8.73764,0.941394,47.1265,376.994,256.5,276.283,2.57633
7.59956,0.880788,47.3719,404.472,273.923,297.596,2.60689
6.60971,0.820182,47.8623,436.024,292.535,323.327,2.63951
5.74879,0.759576,48.122,467.132,311.833,347.812,2.66944
5,0.69897,48.4881,503.239,333.535,376.835,2.70177
4.34874,0.638363,48.9343,541.193,355.523,408.036,2.73335
3.78232,0.577758,49.3954,583.259,379.605,442.821,2.76586
3.28967,0.517152,49.7865,629.197,406.233,480.483,2.79879
2.86118,0.456545,50.2139,679.566,434.87,522.205,2.83223
2.48851,0.395939,50.6038,736.153,467.222,568.881,2.86697
2.16438,0.335334,51.0335,795.948,500.544,618.861,2.90088
1.88247,0.274728,51.5157,860.081,535.229,673.253,2.93454
1.63727,0.21412,51.6805,933.822,579.013,732.644,2.97026
1.42402,0.153516,52.0862,1011.91,621.795,798.335,3.00514
1.23854,0.09291,52.3966,1102.31,672.621,873.31,3.0423
1.07722,0.0323044,52.4956,1204.95,733.603,955.898,3.08097
0.936909,-0.0283026,52.949,1305.07,786.339,1041.58,3.11563
0.814875,-0.088909,52.685,1421.86,861.925,1130.82,3.15286
0.708737,-0.149515,52.4551,1552.13,945.843,1230.65,3.19093
0.616423,-0.210121,52.4257,1691.59,1031.51,1340.69,3.2283
0.536134,-0.270727,52.4385,1848.14,1126.65,1465.02,3.26673
0.466302,-0.331333,52.0788,2021.39,1242.3,1594.58,3.30565
0.405565,-0.39194,52.2863,2202.85,1347.52,1742.62,3.34298
0.35274,-0.452545,51.4061,2397.26,1495.4,1873.66,3.37972
0.306795,-0.513152,51.1275,2611.23,1638.78,2032.96,3.41685
0.266835,-0.573757,50.498,2841.11,1807.25,2192.21,3.45349
0.232079,-0.634364,49.6966,3094,2001.3,2359.58,3.49052
0.201851,-0.694969,48.8395,3362.95,2213.4,2531.86,3.52672
0.17556,-0.755574,47.7778,3644.46,2449.1,2698.88,3.56163
0.152693,-0.816181,46.6814,3935.33,2699.85,2863.15,3.59498
0.132804,-0.876789,45.803,4263.07,2971.9,3056.4,3.62972
0.115506,-0.937395,44.1505,4574.79,3282.47,3186.55,3.66037
0.100462,-0.997998,42.7614,4908.98,3604.11,3332.94,3.69099
0.0873764,-1.05861,41.2272,5293.13,3980.97,3488.42,3.72371
0.0759956,-1.11921,39.4451,5682.33,4388.09,3610.21,3.75453
0.0660971,-1.17982,37.7758,6031.31,4767.22,3694.62,3.78041
0.0574878,-1.24042,35.8539,6430.89,5212.32,3766.7,3.80827
0.05,-1.30103,34.2572,6802.35,5622.27,3829.1,3.83266

File: Book8.csv
PW-2,,,,,,
freq / Hz,Log(f / Hz),neg. Phase / бу,Z / Ohm,Z' / Ohm,Z'' / Ohm,Log(Z / Ohm)
50000,4.69897,15.6173,20.8955,20.1241,5.62529,1.32005
43487.4,4.63836,15.9342,21.2156,20.4005,5.82438,1.32666
37823.2,4.57776,16.4931,21.5115,20.6264,6.10711,1.33267
32896.7,4.51715,17.2767,21.9275,20.9381,6.51217,1.34099
28611.8,4.45655,18.0143,22.4392,21.3392,6.93943,1.35101
24885.1,4.39594,18.8534,23.0159,21.7811,7.43753,1.36203
21643.8,4.33533,19.6559,23.6174,22.2412,7.94417,1.37323
18824.7,4.27473,20.3923,24.4688,22.9354,8.52607,1.38861
16372.7,4.21412,18.3063,29.3344,27.8498,9.21383,1.46738
14240.2,4.15352,20.4488,28.0224,26.2566,9.79021,1.44751
12385.4,4.09291,21.5261,28.5994,26.6047,10.4938,1.45636
10772.2,4.0323,22.4211,29.5541,27.32,11.2723,1.47062
9369.09,3.9717,23.4898,30.3186,27.8061,12.0846,1.48171
8148.75,3.91109,24.5491,31.3898,28.5524,13.0416,1.49679
7087.37,3.85049,24.883,33.2182,30.1345,13.9771,1.52138
6164.23,3.78988,26.0018,34.3493,30.8724,15.0587,1.53592
5361.34,3.72927,27.0806,35.5992,31.6964,16.2063,1.55144
4663.02,3.66867,28.222,36.975,32.5795,17.4851,1.56791
4055.65,3.60806,29.3219,38.5709,33.6293,18.8888,1.58626
3527.4,3.54745,30.5064,40.1783,34.6165,20.3959,1.60399
3067.95,3.48685,31.6362,41.9785,35.7403,22.0187,1.62303
2668.35,3.42624,32.552,44.2246,37.277,23.7957,1.64566
2320.79,3.36564,33.8435,46.2662,38.4269,25.7668,1.66526
2018.51,3.30503,35.228,48.5128,39.6283,27.9837,1.68586
1755.6,3.24443,36.5987,50.8775,40.846,30.3335,1.70653
1526.93,3.18382,38.4674,53.22,41.6693,33.1065,1.72607
1328.04,3.12321,39.7957,56.1469,43.1394,35.9369,1.74933
1155.06,3.0626,40.8996,59.6439,45.0823,39.051,1.77557
1004.62,3.002,41.9327,63.8062,47.4674,42.639,1.80486
873.764,2.94139,42.9578,67.8217,49.6357,46.2178,1.83137
759.956,2.88079,44.2514,72.3413,51.817,50.4803,1.85939
660.971,2.82018,45.031,77.6849,54.9018,54.9612,1.89034
574.878,2.75958,46.2894,83.2754,57.5446,60.1947,1.92052
500,2.69897,47.2209,89.4884,60.7782,65.6825,1.95177
434.875,2.63836,48.1682,96.3257,64.2441,71.7729,1.98374
378.232,2.57776,49.1193,103.765,67.9124,78.4537,2.01605
328.967,2.51715,49.8972,112.017,72.1568,85.6803,2.04928
286.118,2.45655,50.6434,120.859,76.6418,93.4497,2.08228
248.851,2.39594,51.4093,130.765,81.5649,102.209,2.11649
216.438,2.33533,52.102,141.716,87.0502,111.829,2.15142
188.247,2.27473,52.7823,153.766,93.0047,122.45,2.18686
163.727,2.21412,53.4157,166.904,99.4756,134.021,2.22247
142.402,2.15352,54.028,181.529,106.628,146.912,2.25895
123.854,2.09291,54.4529,197.791,114.99,160.93,2.29621
107.722,2.0323,54.7077,216.188,124.902,176.456,2.33483
93.6909,1.9717,55.3095,235.832,134.222,193.91,2.3726
81.4875,1.91109,55.6686,257.652,145.31,212.766,2.41103
70.8737,1.85049,56.2957,281.389,156.145,234.091,2.44931
61.6423,1.78988,57.1097,309.457,168.045,259.855,2.4906
53.6134,1.72927,57.4567,341.83,183.883,288.157,2.53381
46.6302,1.66867,57.9527,378.282,200.724,320.636,2.57782
40.5565,1.60806,58.5974,427.888,222.95,365.214,2.63133
35.274,1.54745,59.3335,489.484,249.657,421.03,2.68974
30.6795,1.48685,60.3031,575.256,284.989,499.701,2.75986
26.6835,1.42624,61.287,681.679,327.494,597.858,2.83358
23.2079,1.36564,62.0431,785.824,368.4,694.118,2.89533
20.1851,1.30503,62.6079,890.597,409.743,790.742,2.94968
17.556,1.24443,62.9889,992.2,450.621,883.969,2.9966
15.2693,1.18382,63.2849,1089.1,489.61,972.84,3.03707
13.2804,1.12321,63.4651,1186.06,529.866,1061.13,3.07411
11.5506,1.0626,63.6229,1290.04,573.135,1155.73,3.1106
10.0462,1.002,63.7745,1400.37,618.83,1256.22,3.14624
8.73764,0.941394,63.9461,1521.34,668.197,1366.74,3.18223
7.59956,0.880788,64.1234,1667.32,727.678,1500.15,3.22202
6.60971,0.820182,64.3272,1833.82,794.468,1652.79,3.26336
5.74879,0.759576,64.6176,2011.99,862.452,1817.76,3.30363
5,0.69897,64.8381,2217.51,942.836,2007.09,3.34587
4.34874,0.638363,65.0705,2438.77,1027.95,2211.54,3.38717
3.78232,0.577758,65.2084,2696.31,1130.61,2447.82,3.43077
3.28967,0.517152,65.346,2984.77,1245.06,2712.69,3.47491
2.86118,0.456545,65.4901,3291.87,1365.63,2995.24,3.51744
2.48851,0.395939,65.6453,3652.17,1506.09,3327.16,3.56255
2.16438,0.335334,65.6234,4032.12,1664.19,3672.66,3.60553
1.88247,0.274728,65.8107,4405.8,1805.29,4018.96,3.64402
1.63727,0.21412,65.4677,4931.97,2047.78,4486.75,3.69302
1.42402,0.153516,65.3261,5477.86,2286.75,4977.72,3.73861
1.23854,0.09291,64.7699,6133.23,2614.32,5548.14,3.78769
1.07722,0.0323044,64.7771,6755.07,2878.61,6111.02,3.82963
0.936909,-0.0283026,64.4756,7473.86,3220.46,6744.43,3.87354
0.814875,-0.088909,63.2632,8360.73,3761.43,7466.82,3.92224
0.708737,-0.149515,62.7715,9269.3,4241.09,8242.16,3.96705
0.616423,-0.210121,62.2285,10225.5,4764.54,9047.66,4.00968
0.536134,-0.270727,61.4354,11336.4,5420.5,9956.51,4.05448
0.466302,-0.331333,60.5073,12521.3,6164.37,10898.7,4.09765
0.405565,-0.39194,59.5131,13815.7,7009.29,11905.6,4.14037
0.35274,-0.452545,58.1371,15192.6,8020.01,12903.3,4.18163
0.306795,-0.513152,56.9307,16711.7,9118.79,14004.6,4.22302
0.266835,-0.573757,55.5834,18307.2,10347.3,15102.5,4.26262
0.232079,-0.634364,54.2851,20011,11681.4,16247.5,4.30127
0.201851,-0.694969,52.9143,21794.1,13142,17385.9,4.33834
0.17556,-0.755574,51.2727,23716.2,14837.2,18501.8,4.37505
0.152693,-0.816181,49.2261,25976.3,16964.5,19671.7,4.41458
0.132804,-0.876789,47.3738,28297.2,19163.2,20820.7,4.45174
0.115506,-0.937395,45.7074,30692.2,21433.1,21968.9,4.48703
0.100462,-0.997998,44.0188,33715.2,24245,23428.5,4.52783
0.0873764,-1.05861,41.9551,36107.7,26852.2,24139.7,4.5576
0.0759956,-1.11921,41.4961,39000.1,29211.1,25840.2,4.59107
0.0660971,-1.17982,37.1941,41701.3,33218.9,25209.1,4.62015
0.0574878,-1.24042,36.9887,47424.1,37880.2,28533,4.676
0.05,-1.30103,35.2089,51085.7,41739.9,29453.9,4.7083

File: Book9.csv
PW-1,,,,,,
freq / Hz,Log(f / Hz),neg. Phase / бу,Z / Ohm,Z' / Ohm,Z'' / Ohm,Log(Z / Ohm)
50000,4.69897,14.6319,15.4734,14.9715,3.9087,1.18959
43487.4,4.63836,15.3375,15.7615,15.2002,4.169,1.1976
37823.2,4.57776,16.1713,16.1186,15.4809,4.48921,1.20733
32896.7,4.51715,17.0748,16.4972,15.77,4.84388,1.21741
28611.8,4.45655,17.8878,16.9792,16.1584,5.21523,1.22992
24885.1,4.39594,18.5516,17.7173,16.7966,5.63689,1.2484
21643.8,4.33533,19.5485,18.158,17.1113,6.07576,1.25907
18824.7,4.27473,20.5176,18.6897,17.5041,6.55065,1.2716
16372.7,4.21412,21.4577,19.3337,17.9937,7.07254,1.28631
14240.2,4.15352,22.6025,19.9368,18.4055,7.6624,1.29966
12385.4,4.09291,23.6883,20.5871,18.8525,8.27109,1.3136
10772.2,4.0323,24.849,21.3297,19.355,8.96333,1.32898
9369.09,3.9717,26.0286,22.1351,19.89,9.7133,1.34508
8148.75,3.91109,27.2213,23.054,20.5007,10.5456,1.36275
7087.37,3.85049,28.2618,23.873,21.0272,11.3039,1.37791
6164.23,3.78988,29.7485,24.4748,21.2493,12.1442,1.38872
5361.34,3.72927,31.1285,25.5913,21.9064,13.2297,1.40809
4663.02,3.66867,32.3953,26.7848,22.6163,14.3501,1.42789
4055.65,3.60806,33.558,28.1594,23.466,15.566,1.44962
3527.4,3.54745,34.7473,29.6014,24.3227,16.8716,1.47131
3067.95,3.48685,35.9382,31.2376,25.2916,18.3337,1.49468
2668.35,3.42624,37.1084,33.1121,26.4067,19.9774,1.51999
2320.79,3.36564,38.2844,35.0776,27.5339,21.7328,1.54503
2018.51,3.30503,39.4147,37.2285,28.7616,23.6374,1.57088
1755.6,3.24443,40.4756,39.6834,30.1865,25.7594,1.59861
1526.93,3.18382,41.5274,42.3111,31.6757,28.0513,1.62645
1328.04,3.12321,42.5469,45.2004,33.3002,30.5642,1.65514
1155.06,3.0626,43.5134,48.4215,35.1159,33.3394,1.68504
1004.62,3.002,44.3864,52.0489,37.1962,36.4079,1.71641
873.764,2.94139,45.2645,55.8281,39.2938,39.6582,1.74685
759.956,2.88079,46.0498,60.0817,41.6987,43.2554,1.77874
660.971,2.82018,46.835,64.6943,44.2575,47.1872,1.81087
574.878,2.75958,47.539,69.7579,47.0927,51.4631,1.84359
500,2.69897,48.2196,75.2069,50.1086,56.0821,1.87626
434.875,2.63836,48.8355,81.1514,53.4158,61.0926,1.9093
378.232,2.57776,49.4338,87.7044,57.0365,66.625,1.94302
328.967,2.51715,49.9503,94.8773,61.0489,72.6274,1.97716
286.118,2.45655,50.4683,102.688,65.3613,79.2003,2.01152
248.851,2.39594,50.9404,111.153,70.0405,86.309,2.04592
216.438,2.33533,50.8166,121.28,76.6253,94.0074,2.08379
188.247,2.27473,51.4991,130.92,81.5013,102.458,2.11701
163.727,2.21412,51.9406,141.834,87.4375,111.676,2.15178
142.402,2.15352,52.3631,153.673,93.8416,121.693,2.1866
123.854,2.09291,52.7134,166.855,101.081,132.752,2.22234
107.722,2.0323,53.0753,180.811,108.625,144.545,2.25722
93.6909,1.9717,53.4263,196.172,116.89,157.544,2.29264
81.4875,1.91109,53.6304,212.95,126.278,171.469,2.32828
70.8737,1.85049,54.0241,231.013,135.708,186.951,2.36364
61.6423,1.78988,54.4713,250.875,145.786,204.168,2.39946
53.6134,1.72927,54.7663,272.974,157.482,222.966,2.43612
46.6302,1.66867,55.1141,296.787,169.746,243.452,2.47244
40.5565,1.60806,55.4862,322.877,182.943,266.047,2.50904
35.274,1.54745,55.8918,351.201,196.938,290.787,2.54556
30.6795,1.48685,56.2703,382.523,212.406,318.132,2.58266
26.6835,1.42624,56.728,417.603,229.103,349.148,2.62076
23.2079,1.36564,57.0999,456.109,247.747,382.958,2.65907
20.1851,1.30503,57.517,498.616,267.781,420.608,2.69777
17.556,1.24443,57.8755,544.787,289.697,461.377,2.73623
15.2693,1.18382,58.2444,596.329,313.846,507.059,2.77549
13.2804,1.12321,58.586,652.259,339.969,556.653,2.81442
11.5506,1.0626,58.9679,715.381,368.792,612.995,2.85454
10.0462,1.002,59.3213,786.058,401.065,676.043,2.89545
8.73764,0.941394,59.5907,862.889,436.772,744.182,2.93595
7.59956,0.880788,59.8254,946.468,475.729,818.219,2.97611
6.60971,0.820182,60.024,1042.07,520.658,902.678,3.0179
5.74879,0.759576,60.1545,1146.08,570.362,994.076,3.05921
5,0.69897,60.1088,1264.8,630.316,1096.54,3.10202
4.34874,0.638363,60.2411,1392.15,690.997,1208.56,3.14369
3.78232,0.577758,60.1659,1536.06,764.177,1332.49,3.18641
3.28967,0.517152,60.0703,1693.74,845.071,1467.86,3.22885
2.86118,0.456545,59.9997,1867.29,933.652,1617.11,3.27121
2.48851,0.395939,59.6789,2062.7,1041.35,1780.55,3.31444
2.16438,0.335334,59.2888,2275.58,1162.17,1956.44,3.35709
1.88247,0.274728,58.7725,2501.32,1296.78,2138.92,3.39817
1.63727,0.21412,58.4075,2733.91,1432.23,2328.73,3.43678
1.42402,0.153516,57.6089,3020.1,1617.86,2550.21,3.48002
1.23854,0.09291,56.636,3335.09,1834.15,2785.44,3.52311
1.07722,0.0323044,55.9675,3640.4,2037.4,3016.87,3.56115
0.936909,-0.0283026,55.0974,3971.05,2272.17,3256.76,3.59891
0.814875,-0.088909,53.583,4343.63,2578.63,3495.4,3.63785
0.708737,-0.149515,52.6021,4726.27,2870.48,3754.72,3.67452
0.616423,-0.210121,51.4801,5143.78,3203.48,4024.45,3.71128
0.536134,-0.270727,50.4805,5571.13,3545.13,4297.61,3.74594
0.466302,-0.331333,49.3143,6039.62,3937.29,4579.83,3.78101
0.405565,-0.39194,48.27,6519.76,4339.69,4865.63,3.81423
0.35274,-0.452545,47.2346,7023.01,4768.61,5155.87,3.84652
0.306795,-0.513152,46.196,7551.74,5227.27,5450.18,3.87805
0.266835,-0.573757,45.2026,8097.93,5705.82,5746.31,3.90837
0.232079,-0.634364,44.1587,8687.4,6232.46,6052.06,3.93889
0.201851,-0.694969,43.2046,9354.4,6818.56,6404.07,3.97102
0.17556,-0.755574,41.8365,10065.9,7499.65,6714.06,4.00285
0.152693,-0.816181,40.9849,10857.6,8196.22,7121.07,4.03573
0.132804,-0.876789,40.0511,11578.8,8863.25,7450.63,4.06366
0.115506,-0.937395,39.1375,12493.6,9690.48,7885.79,4.09669
0.100462,-0.997998,37.8525,13400.9,10581.2,8223.17,4.12713
0.0873764,-1.05861,29.9425,18373.7,15921.3,9170.87,4.2642
0.0759956,-1.11921,38.6205,19465.3,15208.2,12149.4,4.28926
0.0660971,-1.17982,98.2765,51038.8,-7347.02,50507.3,4.7079
0.0574878,-1.24042,50.9924,46070.5,28997.9,35799.6,4.66342
0.05,-1.30103,33.1517,40171.3,33632.4,21968,4.60392