Folder: hte-data-processing/membrane conductivity analysis/EIS data (part 5)

File: Book19.csv
PES0.45-3(5),,,,,,
freq / Hz,Log(f / Hz),neg. Phase / бу,Z / Ohm,Z' / Ohm,Z'' / Ohm,Log(Z / Ohm)
50000,4.69897,56.7401,2.63065,1.44275,2.19973,0.420063
43487.4,4.63836,53.3629,3.08479,1.84083,2.47533,0.489226
37823.2,4.57776,51.7493,3.58914,2.22205,2.81858,0.55499
32896.7,4.51715,50.7874,4.14138,2.61818,3.20877,0.617145
28611.8,4.45655,48.1124,4.94384,3.30086,3.68047,0.694064
24885.1,4.39594,45.0859,5.87876,4.15067,4.16314,0.769286
21643.8,4.33533,47.6293,6.16293,4.15335,4.55318,0.789787
18824.7,4.27473,48.6983,6.65992,4.39571,5.00323,0.823469
16372.7,4.21412,49.2921,7.23712,4.72007,5.48606,0.859566
14240.2,4.15352,49.9984,7.86511,5.05576,6.02488,0.895705
12385.4,4.09291,50.3001,8.58568,5.48424,6.60583,0.933775
10772.2,4.0323,50.4761,9.34807,5.94912,7.21072,0.970722
9369.09,3.9717,50.747,10.1802,6.44149,7.88316,1.00776
8148.75,3.91109,50.9937,11.0735,6.96971,8.60494,1.04428
7087.37,3.85049,51.3042,12.0259,7.51841,9.3859,1.08012
6164.23,3.78988,51.5235,13.0778,8.13692,10.2381,1.11653
5361.34,3.72927,51.9641,14.1611,8.72542,11.1536,1.1511
4663.02,3.66867,52.2378,15.3918,9.42572,12.1681,1.18729
4055.65,3.60806,52.5186,16.7305,10.1806,13.2765,1.22351
3527.4,3.54745,52.796,18.1938,11.001,14.4912,1.25992
3067.95,3.48685,53.0925,19.7393,11.8539,15.7836,1.29533
2668.35,3.42624,53.3677,21.4475,12.7973,17.2113,1.33138
2320.79,3.36564,53.6575,23.2956,13.8052,18.7643,1.36727
2018.51,3.30503,53.9709,25.3384,14.904,20.4917,1.40378
1755.6,3.24443,54.155,27.5527,16.1347,22.3343,1.44016
1526.93,3.18382,54.4874,29.9902,17.4208,24.4117,1.47698
1328.04,3.12321,54.6175,32.6513,18.9061,26.6207,1.5139
1155.06,3.0626,54.8556,35.4949,20.4322,29.0243,1.55017
1004.62,3.002,55.0826,38.6553,22.1262,31.6965,1.58721
873.764,2.94139,55.3456,42.111,23.9454,34.6404,1.6244
759.956,2.88079,55.4244,45.9606,26.0823,37.8429,1.66239
660.971,2.82018,55.5791,50.1591,28.3533,41.3766,1.70035
574.878,2.75958,55.731,54.6724,30.7849,45.1814,1.73777
500,2.69897,55.8292,59.6363,33.4954,49.3411,1.77551
434.875,2.63836,55.96,65.1088,36.4461,53.9522,1.81364
378.232,2.57776,56.0433,71.052,39.6872,58.9348,1.85158
328.967,2.51715,56.1288,77.5853,43.2404,64.4185,1.88978
286.118,2.45655,56.1827,84.6487,47.1109,70.3276,1.92762
248.851,2.39594,56.1636,92.4725,51.4909,76.8106,1.96601
216.438,2.33533,56.0862,102.339,57.0995,84.9289,2.01004
188.247,2.27473,55.9781,111.168,62.1996,92.1387,2.04598
163.727,2.21412,55.7683,116.382,65.4697,96.2213,2.06589
142.402,2.15352,55.6347,126.18,71.2243,104.156,2.10099
123.854,2.09291,55.2015,132.728,75.7467,108.991,2.12296
107.722,2.0323,55.0206,140.564,80.5826,115.172,2.14787
93.6909,1.9717,54.8982,151.127,86.9029,123.642,2.17934
81.4875,1.91109,54.6563,163.37,94.5065,133.261,2.21317
70.8737,1.85049,54.5112,176.157,102.267,143.432,2.2459
61.6423,1.78988,54.3288,190.959,111.354,155.131,2.28094
53.6134,1.72927,54.2651,206.858,120.812,167.912,2.31567
46.6302,1.66867,54.1239,224.206,131.392,181.671,2.35065
40.5565,1.60806,53.9754,242.959,142.892,196.497,2.38553
35.274,1.54745,53.8522,263.072,155.178,212.43,2.42007
30.6795,1.48685,53.7314,284.965,168.577,229.754,2.45479
26.6835,1.42624,53.6043,309.316,183.535,248.98,2.4904
23.2079,1.36564,53.4534,335.269,199.645,269.346,2.52539
20.1851,1.30503,53.3232,363.665,217.217,291.666,2.5607
17.556,1.24443,53.1739,393.683,235.969,315.127,2.59515
15.2693,1.18382,53.0492,426.828,256.579,341.101,2.63025
13.2804,1.12321,52.8809,462.824,279.302,369.048,2.66542
11.5506,1.0626,52.7085,501.194,303.659,398.732,2.70001
10.0462,1.002,52.5646,543.3,330.254,431.402,2.73504
8.73764,0.941394,52.4231,587.361,358.188,465.504,2.76891
7.59956,0.880788,52.1984,634.803,389.089,501.581,2.80264
6.60971,0.820182,52.0572,687.926,422.988,542.516,2.83754
5.74879,0.759576,51.8687,744.07,459.438,585.283,2.87161
5,0.69897,51.7465,805.768,498.885,632.753,2.90621
4.34874,0.638363,51.6228,870.337,540.337,682.292,2.93969
3.78232,0.577758,51.5858,941.445,584.96,737.659,2.97379
3.28967,0.517152,51.4967,1021.85,636.165,799.673,3.00939
2.86118,0.456545,51.4122,1097.78,684.702,858.087,3.04052
2.48851,0.395939,51.5281,1190.3,740.52,931.899,3.07566
2.16438,0.335334,51.4125,1282.15,799.685,1002.2,3.10794
1.88247,0.274728,51.5041,1382.93,860.815,1082.35,3.1408
1.63727,0.21412,51.6936,1490.79,924.088,1169.83,3.17342
1.42402,0.153516,51.7357,1613.8,999.408,1267.1,3.20785
1.23854,0.09291,51.9293,1749.5,1078.8,1377.3,3.24291
1.07722,0.0323044,52.0186,1899.83,1169.17,1497.47,3.27871
0.936909,-0.0283026,51.788,2064.74,1277.19,1622.32,3.31487
0.814875,-0.088909,51.4234,2240.33,1396.98,1751.43,3.35031
0.708737,-0.149515,51.9371,2428.23,1497.07,1911.83,3.38529
0.616423,-0.210121,51.9185,2662.21,1642,2095.51,3.42524
0.536134,-0.270727,51.8944,2902.69,1791.28,2284.05,3.4628
0.466302,-0.331333,51.914,3172.05,1956.66,2496.67,3.50134
0.405565,-0.39194,51.6172,3453.27,2144.18,2706.95,3.53823
0.35274,-0.452545,51.3984,3763.96,2348.34,2941.55,3.57564
0.306795,-0.513152,51.0289,4111.66,2585.94,3196.67,3.61402
0.266835,-0.573757,50.3401,4473.55,2855.15,3443.94,3.65065
0.232079,-0.634364,50.0109,4845.59,3113.98,3712.53,3.68535
0.201851,-0.694969,48.9355,5298.81,3480.83,3995.15,3.72418
0.17556,-0.755574,47.9985,5765.29,3857.85,4284.35,3.76082
0.152693,-0.816181,47.7202,6247.76,4203.19,4622.53,3.79572
0.132804,-0.876789,45.3242,6814.97,4791.57,4846.1,3.83346
0.115506,-0.937395,43.814,7395.32,5336.4,5119.92,3.86896
0.100462,-0.997998,42.3589,7864.19,5811.16,5298.68,3.89565
0.0873764,-1.05861,40.7075,8453.25,6407.98,5513.19,3.92702
0.0759956,-1.11921,39.2445,9132.47,7072.67,5777.49,3.96059
0.0660971,-1.17982,37.1863,9674.55,7707.47,5847.39,3.98563
0.0574878,-1.24042,34.9802,10370.2,8496.86,5945.19,4.01579
0.05,-1.30103,33.362,10860.8,9071.07,5972.64,4.03586

File: Book20.csv
PES0.45-2(5),,,,,,
freq / Hz,Log(f / Hz),neg. Phase / бу,Z / Ohm,Z' / Ohm,Z'' / Ohm,Log(Z / Ohm)
50000,4.69897,61.6881,2.85515,1.35412,2.51362,0.455629
43487.4,4.63836,59.6453,3.62705,1.83294,3.12983,0.559554
37823.2,4.57776,58.6105,4.46268,2.3244,3.80956,0.649596
32896.7,4.51715,58.0129,5.33205,2.82454,4.52247,0.726894
28611.8,4.45655,57.7761,6.1939,3.30277,5.23986,0.791964
24885.1,4.39594,57.5929,7.12203,3.81691,6.01286,0.852604
21643.8,4.33533,57.4262,8.1158,4.36943,6.83918,0.909331
18824.7,4.27473,56.0588,9.31396,5.20038,7.72696,0.969134
16372.7,4.21412,56.4556,10.3796,5.73559,8.65097,1.01618
14240.2,4.15352,56.8107,11.5229,6.30772,9.64313,1.06156
12385.4,4.09291,57.0779,12.7979,6.95564,10.7427,1.10714
10772.2,4.0323,57.4592,14.1567,7.61488,11.9342,1.15096
9369.09,3.9717,57.7587,15.6531,8.35073,13.2396,1.1946
8148.75,3.91109,58.0973,17.282,9.13314,14.6715,1.23759
7087.37,3.85049,58.3237,19.0639,10.0108,16.2239,1.28021
6164.23,3.78988,58.6317,21.0405,10.9524,17.9652,1.32306
5361.34,3.72927,58.9624,23.164,11.9433,19.8476,1.36481
4663.02,3.66867,59.2809,25.5338,13.0434,21.9509,1.40712
4055.65,3.60806,59.5152,28.1223,14.2667,24.2348,1.44905
3527.4,3.54745,59.7597,31.0003,15.6126,26.7818,1.49137
3067.95,3.48685,60.0111,34.1014,17.0449,29.536,1.53277
2668.35,3.42624,60.2584,37.6001,18.653,32.6471,1.575189
2320.79,3.36564,60.4962,41.42,20.3986,36.0488,1.61721
2018.51,3.30503,60.8045,45.6005,22.2435,39.8074,1.65897
1755.6,3.24443,60.954,50.226,24.3853,43.9091,1.70093
1526.93,3.18382,61.1334,55.4351,26.7625,48.5471,1.74378
1328.04,3.12321,61.4688,60.8699,29.0738,53.4777,1.7844
1155.06,3.0626,61.5897,67.2171,31.9807,59.1217,1.82748
1004.62,3.002,61.9146,74.1559,34.9116,65.4238,1.87015
873.764,2.94139,61.9574,81.6176,38.3707,72.0356,1.91178
759.956,2.88079,62.2903,90.1931,41.939,79.8493,1.95517
660.971,2.82018,62.317,99.4649,46.2093,88.0794,1.99767
574.878,2.75958,62.4512,109.749,50.7595,97.3056,2.0404
500,2.69897,62.642,121.003,55.6066,107.469,2.0828
434.875,2.63836,62.8512,133.534,60.932,118.822,2.12559
378.232,2.57776,63,147.3,66.8729,131.245,2.1682
328.967,2.51715,63.1435,162.731,73.5148,145.179,2.21147
286.118,2.45655,63.2545,179.664,80.8538,160.442,2.25446
248.851,2.39594,63.4424,198.537,88.7654,177.588,2.29784
216.438,2.33533,63.5849,219.381,97.5962,196.476,2.3412
188.247,2.27473,63.7845,242.531,107.137,217.584,2.38477
163.727,2.21412,63.9137,268.305,117.98,240.974,2.42863
142.402,2.15352,64.0879,296.237,129.453,266.455,2.47164
123.854,2.09291,64.1924,328.063,142.822,295.342,2.51596
107.722,2.0323,64.3781,362.706,156.845,327.04,2.55955
93.6909,1.9717,64.5484,401.458,172.526,362.496,2.60364
81.4875,1.91109,64.5794,444.325,190.731,401.306,2.6477
70.8737,1.85049,64.7131,491.314,209.866,444.236,2.69136
61.6423,1.78988,65.1742,544.625,228.667,494.296,2.7361
53.6134,1.72927,65.1134,603.054,253.78,547.056,2.78036
46.6302,1.66867,65.223,666.632,279.377,605.266,2.82389
40.5565,1.60806,65.4017,738.117,307.245,671.132,2.86813
35.274,1.54745,65.5525,816.823,338.05,743.587,2.91213
30.6795,1.48685,65.7296,904.279,371.698,824.356,2.9563
26.6835,1.42624,65.872,1002.21,409.678,914.647,3.00096
23.2079,1.36564,66.0107,1110.9,451.653,1014.94,3.04567
20.1851,1.30503,66.2192,1232.09,496.826,1127.48,3.09064
17.556,1.24443,66.3897,1364.42,546.47,1250.21,3.13495
15.2693,1.18382,66.6115,1513.34,600.741,1389,3.17994
13.2804,1.12321,66.8356,1676.44,659.463,1541.29,3.22439
11.5506,1.0626,67.0888,1858.57,723.55,1711.95,3.26918
10.0462,1.002,67.329,2067.4,796.858,1907.66,3.31542
8.73764,0.941394,67.617,2293,873.167,2120.25,3.3604
7.59956,0.880788,67.7442,2546.02,964.285,2356.35,3.40586
6.60971,0.820182,68.085,2830.45,1056.41,2625.92,3.45186
5.74879,0.759576,68.417,3138.03,1154.32,2918.01,3.49666
5,0.69897,68.7765,3501.15,1267.44,3263.69,3.54421
4.34874,0.638363,69.0601,3893.8,1391.6,3636.64,3.59037
3.78232,0.577758,69.4321,4332.86,1522.21,4056.67,3.63677
3.28967,0.517152,69.9296,4826.78,1656.43,4533.66,3.68366
2.86118,0.456545,70.1923,5378.4,1822.55,5060.19,3.73065
2.48851,0.395939,70.6174,6019.44,1997.7,5678.28,3.77956
2.16438,0.335334,70.8469,6719.4,2204.59,6347.45,3.82733
1.88247,0.274728,71.0761,7513.36,2436.67,7107.26,3.87583
1.63727,0.21412,71.3282,8445.06,2703.66,8000.58,3.9266
1.42402,0.153516,71.9679,9321.42,2885.44,8863.59,3.96948
1.23854,0.09291,72.4985,10347,3111.64,9867.99,4.01481
1.07722,0.0323044,72.7626,11593.4,3435.49,11072.7,4.06421
0.936909,-0.0283026,72.7015,13240.6,3937.11,12641.7,4.12191
0.814875,-0.088909,72.8528,14750.3,4348.79,14094.6,4.1688
0.708737,-0.149515,73.0565,16638.5,4848.94,15916.3,4.22111
0.616423,-0.210121,73.5599,18466.4,5226.21,17711.4,4.26638
0.536134,-0.270727,73.812,20767.1,5789.64,19943.7,4.31738
0.466302,-0.331333,73.9754,23462.8,6476.93,22551.1,4.37038
0.405565,-0.39194,74.2684,26281.3,7125.7,25296.8,4.41965
0.35274,-0.452545,74.4413,29555.5,7927.52,28472.5,4.47064
0.306795,-0.513152,74.799,33004.9,8654.09,31850.1,4.51858
0.266835,-0.573757,74.8556,37309.5,9747.2,36013.7,4.57182
0.232079,-0.634364,74.8231,42427.6,11107.5,40947.9,4.62765
0.201851,-0.694969,75.1584,47305.9,12117.3,45727.6,4.67492
0.17556,-0.755574,75.3208,53181.3,13476.5,51445.5,4.72576
0.152693,-0.816181,75.431,59913.9,15071.1,57987.4,4.77753
0.132804,-0.876789,75.282,68666.1,17445.5,66413,4.83674
0.115506,-0.937395,75.5102,76702.5,19191.6,74262.7,4.88481
0.100462,-0.997998,75.5354,86910.6,21708.7,84155.7,4.93907
0.0873764,-1.05861,75.3784,99277.2,25061,96062.1,4.99685
0.0759956,-1.11921,75.5759,112071,27916.5,108538,5.04949
0.0660971,-1.17982,75.4158,127217,32033.5,123118,5.10455
0.0574878,-1.24042,75.3475,146107,36958.6,141355,5.16467
0.05,-1.30103,75.1672,172281,44103.8,166540,5.23624

File: Book21.csv
PES0.45-1(5),,,,,,
freq / Hz,Log(f / Hz),neg. Phase / бу,Z / Ohm,Z' / Ohm,Z'' / Ohm,Log(Z / Ohm)
50000,4.69897,48.9161,4.31883,2.83818,3.25531,0.635366
43487.4,4.63836,48.3704,5.01446,3.33117,3.74808,0.700224
37823.2,4.57776,47.8518,5.81001,3.89881,4.3076,0.764177
32896.7,4.51715,47.245,6.64227,4.5092,4.87717,0.822317
28611.8,4.45655,47.3831,7.41093,5.01789,5.45369,0.869873
24885.1,4.39594,48.0014,8.12952,5.43956,6.04154,0.910065
21643.8,4.33533,48.1418,8.9642,5.98172,6.67652,0.952512
18824.7,4.27473,48.3163,9.82494,6.53377,7.33753,0.99233
16372.7,4.21412,48.4612,10.7557,7.13241,8.05074,1.03164
14240.2,4.15352,48.6983,11.7242,7.73825,8.80774,1.06908
12385.4,4.09291,48.8779,12.7703,8.39858,9.61998,1.1062
10772.2,4.0323,49.0665,13.8944,9.10335,10.4968,1.14284
9369.09,3.9717,49.3118,15.0945,9.84071,11.4457,1.17882
8148.75,3.91109,49.5431,16.4088,10.6472,12.4853,1.21508
7087.37,3.85049,49.7466,17.8022,11.5032,13.5866,1.25047
6164.23,3.78988,50.032,19.2868,12.3891,14.7815,1.28526
5361.34,3.72927,50.1647,20.9123,13.3961,16.0584,1.3204
4663.02,3.66867,50.3953,22.6673,14.4501,17.4643,1.3554
4055.65,3.60806,50.6234,24.5974,15.6049,19.0136,1.39089
3527.4,3.54745,50.8206,26.6887,16.8606,20.6883,1.42633
3067.95,3.48685,51.0132,28.9214,18.1957,22.4803,1.46122
2668.35,3.42624,51.1547,31.3866,19.6863,24.4452,1.49674
2320.79,3.36564,51.371,33.9994,21.225,26.5605,1.53147
2018.51,3.30503,51.5049,36.8806,22.9562,28.865,1.5668
1755.6,3.24443,51.6586,39.8978,24.7504,31.2929,1.60095
1526.93,3.18382,51.8445,43.3102,26.757,34.0564,1.63659
1328.04,3.12321,51.9921,46.8575,28.8534,36.9202,1.67078
1155.06,3.0626,52.034,50.7759,31.237,40.0305,1.70566
1004.62,3.002,52.3057,55.0284,33.647,43.5431,1.74059
873.764,2.94139,52.416,59.8562,36.5078,47.4336,1.77711
759.956,2.88079,52.3434,64.6818,39.5159,51.2077,1.81078
660.971,2.82018,52.5792,70.2248,42.6731,55.7721,1.84649
574.878,2.75958,52.6661,76.1926,46.2077,60.5819,1.88191
500,2.69897,52.8106,82.3269,49.7627,65.5851,1.91554
434.875,2.63836,52.9555,89.2209,53.7498,71.2132,1.95047
378.232,2.57776,53.0561,96.7262,58.1356,77.3059,1.98554
328.967,2.51715,53.1653,104.889,62.882,83.9501,2.02073
286.118,2.45655,53.2946,113.767,67.9989,91.2095,2.05602
248.851,2.39594,53.3974,123.435,73.5998,99.0927,2.09144
216.438,2.33533,53.503,134.03,79.7182,107.745,2.1272
188.247,2.27473,53.6427,145.481,86.2436,117.161,2.16281
163.727,2.21412,53.7464,157.889,93.3693,127.323,2.19835
142.402,2.15352,53.8755,171.547,101.134,138.565,2.23438
123.854,2.09291,54.0298,186.305,109.429,150.781,2.27022
107.722,2.0323,54.1706,202.51,118.544,164.188,2.30645
93.6909,1.9717,54.3242,220.315,128.487,178.968,2.34304
81.4875,1.91109,54.4082,239.306,139.278,194.6,2.37895
70.8737,1.85049,54.5869,260.062,150.698,211.949,2.41508
61.6423,1.78988,54.7252,282.327,163.043,230.49,2.45075
53.6134,1.72927,54.9958,307.725,176.522,252.061,2.48816
46.6302,1.66867,55.2063,334.842,191.068,274.976,2.52484
40.5565,1.60806,55.4021,364.381,206.901,299.943,2.56156
35.274,1.54745,55.6351,396.082,223.573,326.949,2.59779
30.6795,1.48685,55.86,431.062,241.919,356.776,2.63454
26.6835,1.42624,56.1142,469.816,261.94,390.018,2.67193
23.2079,1.36564,56.3856,512.538,283.741,426.833,2.70973
20.1851,1.30503,56.6388,559.109,307.463,466.979,2.7475
17.556,1.24443,56.8827,608.649,332.538,509.776,2.78437
15.2693,1.18382,57.1849,664.175,359.937,558.188,2.82228
13.2804,1.12321,57.4576,724.036,389.476,610.357,2.85976
11.5506,1.0626,57.7169,790.935,422.441,668.672,2.89814
10.0462,1.002,58.0594,865.923,458.107,734.82,2.93748
8.73764,0.941394,58.3157,948.522,498.201,807.15,2.97705
7.59956,0.880788,58.5404,1036.89,541.152,884.48,3.01573
6.60971,0.820182,58.8105,1138.71,589.703,974.116,3.05641
5.74879,0.759576,58.9358,1247.27,643.591,1068.4,3.09596
5,0.69897,59.2307,1368.86,700.285,1176.17,3.13636
4.34874,0.638363,59.4003,1501.64,764.389,1292.53,3.17657
3.78232,0.577758,59.6175,1650.9,834.979,1424.18,3.21772
3.28967,0.517152,59.8569,1816.67,912.259,1571.01,3.25928
2.86118,0.456545,60.0302,1999.32,998.746,1731.99,3.30088
2.48851,0.395939,60.1106,2205.73,1099.17,1912.34,3.34355
2.16438,0.335334,60.2087,2415.98,1200.36,2096.69,3.38309
1.88247,0.274728,60.3088,2644.48,1309.87,2297.28,3.42234
1.63727,0.21412,60.292,2901.49,1437.92,2520.12,3.46262
1.42402,0.153516,60.1942,3197.23,1589.22,2774.29,3.50477
1.23854,0.09291,59.9617,3536.71,1770.4,3061.7,3.5486
1.07722,0.0323044,60.1418,3857.36,1920.41,3345.33,3.58629
0.936909,-0.0283026,59.9421,4247.65,2127.54,3676.42,3.62815
0.814875,-0.088909,59.1581,4697.76,2408.41,4033.43,3.67189
0.708737,-0.149515,59.0648,5162.4,2653.83,4428.05,3.71285
0.616423,-0.210121,59.0546,5664.9,2913.01,4858.55,3.75319
0.536134,-0.270727,58.9336,6235.33,3217.62,5340.99,3.79486
0.466302,-0.331333,58.7025,6871.84,3569.79,5871.86,3.83707
0.405565,-0.39194,58.3572,7586.05,3979.81,6458.27,3.88002
0.35274,-0.452545,58.0169,8354.39,4425.06,7086.23,3.92191
0.306795,-0.513152,57.6492,9191.28,4918.27,7764.68,3.96338
0.266835,-0.573757,57.1249,10129,5498.1,8506.86,4.00557
0.232079,-0.634364,56.4914,11170.5,6166.79,9313.97,4.04807
0.201851,-0.694969,55.8034,12336,6933.27,10203.3,4.09117
0.17556,-0.755574,54.6654,13614.4,7873.87,11106.4,4.134
0.152693,-0.816181,53.939,15008.2,8834.55,12132.5,4.17633
0.132804,-0.876789,52.7318,16491.7,9986.52,13124.3,4.21727
0.115506,-0.937395,51.4729,18226.4,11352.9,14258.8,4.2607
0.100462,-0.997998,50.1892,20115,12878.7,15451.6,4.30352
0.0873764,-1.05861,48.3145,22112.7,14705.9,16513.9,4.34464
0.0759956,-1.11921,47.4639,24900.2,16833.9,18347.7,4.3962
0.0660971,-1.17982,46.3538,28078.7,19380,20318.2,4.44838
0.0574878,-1.24042,45.1073,30914.9,21819.2,21901.1,4.49017
0.05,-1.30103,43.4161,34910.4,25358.3,23993.6,4.54295

File: Book22.csv
I-16-1,,,,,,
freq / Hz,Log(f / Hz),neg. Phase / бу,Z / Ohm,Z' / Ohm,Z'' / Ohm,Log(Z / Ohm)
50000,4.69897,13.103,17.2522,16.8031,3.91113,1.23684
43487.4,4.63836,14.2535,16.7139,16.1994,4.11516,1.22308
37823.2,4.57776,15.5456,16.5509,15.9454,4.43573,1.21882
32896.7,4.51715,17.0275,16.2806,15.5669,4.76747,1.21167
28611.8,4.45655,18.3607,16.3012,15.4714,5.13486,1.21222
24885.1,4.39594,19.5468,16.6095,15.6523,5.55716,1.22036
21643.8,4.33533,20.7736,16.9517,15.8497,6.01239,1.22921
18824.7,4.27473,21.9402,17.4103,16.1494,6.50515,1.24081
16372.7,4.21412,23.0504,18.0127,16.5746,7.05271,1.25558
14240.2,4.15352,24.108,18.6707,17.0422,7.62619,1.27116
12385.4,4.09291,25.2011,19.437,17.587,8.2762,1.28863
10772.2,4.0323,26.382,20.2183,18.1126,8.98407,1.30574
9369.09,3.9717,26.4367,21.9253,19.6325,9.76136,1.34095
8148.75,3.91109,28.0296,22.5698,19.9225,10.6062,1.35353
7087.37,3.85049,29.4603,23.4565,20.4235,11.5364,1.37026
6164.23,3.78988,30.7432,24.5154,21.0702,12.5321,1.38944
5361.34,3.72927,31.2987,26.1927,22.3809,13.6071,1.41818
4663.02,3.66867,32.6119,27.3783,23.0618,14.7554,1.43741
4055.65,3.60806,34.1752,28.5681,23.635,16.0474,1.45588
3527.4,3.54745,35.3498,30.1604,24.5999,17.4498,1.47944
3067.95,3.48685,36.4419,31.8936,25.6571,18.945,1.5037
2668.35,3.42624,37.5543,33.7647,26.7678,20.58,1.52846
2320.79,3.36564,38.5726,35.8662,28.0409,22.3628,1.55469
2018.51,3.30503,39.5509,38.2295,29.4772,24.3432,1.5824
1755.6,3.24443,40.4294,40.6886,30.9724,26.387,1.60947
1526.93,3.18382,41.3179,43.412,32.6049,28.6622,1.63761
1328.04,3.12321,42.157,46.436,34.4234,31.1662,1.66685
1155.06,3.0626,42.9144,49.5988,36.3247,33.7721,1.69547
1004.62,3.002,43.7125,53.1456,38.4145,36.7258,1.72547
873.764,2.94139,44.3606,56.9407,40.71,39.8114,1.75542
759.956,2.88079,45.0596,60.903,43.0201,43.1097,1.78464
660.971,2.82018,45.755,65.4406,45.6597,46.8792,1.81585
574.878,2.75958,46.3291,70.257,48.5135,50.8181,1.84669
500,2.69897,46.8926,75.3519,51.4931,55.0124,1.87709
434.875,2.63836,47.4192,81.0337,54.8297,59.6671,1.90867
378.232,2.57776,47.9153,87.1426,58.4055,64.6733,1.94023
328.967,2.51715,48.4222,93.7636,62.225,70.1403,1.97203
286.118,2.45655,48.9294,100.874,66.2728,76.0487,2.00378
248.851,2.39594,49.3603,108.696,70.7936,82.4806,2.03621
216.438,2.33533,49.7752,117.169,75.6665,89.4605,2.06881
188.247,2.27473,50.1249,126.438,81.0614,97.034,2.10188
163.727,2.21412,50.474,136.443,86.8365,105.244,2.13495
142.402,2.15352,50.8329,147.159,92.9432,114.093,2.16779
123.854,2.09291,51.2362,159.109,99.6202,124.063,2.20169
107.722,2.0323,51.5774,171.981,106.879,134.738,2.23548
93.6909,1.9717,51.9227,185.983,114.7,146.402,2.26947
81.4875,1.91109,52.1685,201.06,123.319,158.801,2.30333
70.8737,1.85049,52.5315,217.354,132.222,172.511,2.33717
61.6423,1.78988,52.9025,235.067,141.786,187.492,2.37119
53.6134,1.72927,53.2413,255.15,152.694,204.417,2.4068
46.6302,1.66867,53.6486,276.746,164.037,222.89,2.44208
40.5565,1.60806,54.0175,300.245,176.406,242.957,2.47748
35.274,1.54745,54.4989,327.222,190.024,266.392,2.51484
30.6795,1.48685,54.8853,356.21,204.897,291.381,2.55171
26.6835,1.42624,55.3643,388.558,220.84,319.699,2.58946
23.2079,1.36564,55.9605,428.381,239.793,354.979,2.63183
20.1851,1.30503,56.4442,469.186,259.342,390.995,2.67135
17.556,1.24443,56.8737,510.925,279.214,427.883,2.70836
15.2693,1.18382,57.2626,557.102,301.275,468.611,2.74593
13.2804,1.12321,57.6555,608.273,325.431,513.897,2.7841
11.5506,1.0626,58.0415,664.275,351.604,563.592,2.82235
10.0462,1.002,58.3749,727.832,381.645,619.747,2.86203
8.73764,0.941394,58.688,795.822,413.588,679.91,2.90082
7.59956,0.880788,58.9899,871.207,448.836,746.691,2.94012
6.60971,0.820182,59.2601,956.413,488.862,822.034,2.98065
5.74879,0.759576,59.4736,1047.48,532.051,902.293,3.02015
5,0.69897,59.6267,1150.45,581.705,992.553,3.06087
4.34874,0.638363,59.6954,1260.11,635.848,1087.92,3.10041
3.78232,0.577758,59.659,1383.41,698.825,1193.93,3.14095
3.28967,0.517152,59.6875,1522.34,768.351,1314.22,3.18251
2.86118,0.456545,59.6701,1672.57,844.613,1443.65,3.22338
2.48851,0.395939,59.5198,1839.79,933.217,1585.54,3.26477
2.16438,0.335334,59.2506,2020.56,1033.08,1736.49,3.30547
1.88247,0.274728,59.1468,2213.16,1135,1899.97,3.34501
1.63727,0.21412,58.6403,2445.73,1272.78,2088.45,3.38841
1.42402,0.153516,58.3065,2683.12,1409.65,2282.99,3.42864
1.23854,0.09291,57.9155,2943.73,1563.62,2494.12,3.4689
1.07722,0.0323044,57.1078,3247.79,1763.74,2727.15,3.51159
0.936909,-0.0283026,56.3981,3563.04,1971.86,2967.67,3.55182
0.814875,-0.088909,55.1846,3900.53,2226.95,3202.32,3.59112
0.708737,-0.149515,54.1327,4274.48,2504.46,3463.94,3.63088
0.616423,-0.210121,53.2897,4657.85,2784.32,3734.05,3.66819
0.536134,-0.270727,52.1744,5083.01,3117.21,4014.97,3.70612
0.466302,-0.331333,50.9667,5545.66,3492.5,4307.76,3.74395
0.405565,-0.39194,49.7584,6010.13,3882.62,4587.69,3.77888
0.35274,-0.452545,48.5998,6516.21,4309.26,4887.87,3.814
0.306795,-0.513152,47.1468,7015.82,4771.62,5143.29,3.84608
0.266835,-0.573757,45.7364,7551.51,5270.65,5407.91,3.87803
0.232079,-0.634364,44.3322,8102.12,5795.45,5661.9,3.9086
0.201851,-0.694969,42.8669,8623.16,6320.22,5866.32,3.93567
0.17556,-0.755574,41.6035,9197.63,6877.6,6106.97,3.96368
0.152693,-0.816181,40.1984,9816.01,7497.6,6335.61,3.99193
0.132804,-0.876789,38.8769,10371.7,8074.35,6509.81,4.01585
0.115506,-0.937395,37.6776,11049.8,8745.51,6753.84,4.04335
0.100462,-0.997998,36.6828,11732.1,9408.62,7008.59,4.06938
0.0873764,-1.05861,35.3859,12550,10231.7,7267.49,4.09864
0.0759956,-1.11921,34.3989,13364.1,11027,7550.05,4.12594
0.0660971,-1.17982,34.7059,15592.9,12818.7,8878.07,4.19293
0.0574878,-1.24042,34.5765,22105.1,18200.7,12544.8,4.34449
0.05,-1.30103,31.9142,23570.2,20007.3,12460.4,4.37236