Folder: hte-data-processing/membrane conductivity analysis/EIS data (part 4)

File: Book14.csv
PVDF0.45-2(4),,,,,,
freq / Hz,Log(f / Hz),neg. Phase / бу,Z / Ohm,Z' / Ohm,Z'' / Ohm,Log(Z / Ohm)
50000,4.69897,55.1499,3.98777,2.27874,3.27256,0.60073
43487.4,4.63836,58.0207,4.51769,2.39262,3.83208,0.654916
37823.2,4.57776,57.468,5.4463,2.92887,4.59173,0.736102
32896.7,4.51715,57.4455,6.34428,3.41387,5.34747,0.802382
28611.8,4.45655,56.5812,7.40654,4.07918,6.182,0.869615
24885.1,4.39594,55.8886,8.51385,4.7746,7.04903,0.930126
21643.8,4.33533,55.9271,9.60458,5.38094,7.95572,0.982478
18824.7,4.27473,56.2804,10.7043,5.94228,8.90346,1.02956
16372.7,4.21412,56.4795,11.9371,6.59211,9.95185,1.0769
14240.2,4.15352,56.7428,13.2219,7.25088,11.0564,1.12129
12385.4,4.09291,57.0599,14.6444,7.96305,12.2901,1.16567
10772.2,4.0323,57.3547,16.1882,8.73249,13.6309,1.2092
9369.09,3.9717,57.5764,17.8718,9.58239,15.0857,1.25217
8148.75,3.91109,57.9158,19.7147,10.4718,16.7036,1.29479
7087.37,3.85049,58.2376,21.696,11.4207,18.4468,1.33638
6164.23,3.78988,58.5529,23.8943,12.4659,20.3848,1.37829
5361.34,3.72927,58.8368,26.2948,13.607,22.5004,1.41987
4663.02,3.66867,59.1583,28.9357,14.8344,24.8438,1.46143
4055.65,3.60806,59.507,31.8202,16.1466,27.4192,1.5027
3527.4,3.54745,59.8353,35.0141,17.5941,30.2726,1.54424
3067.95,3.48685,60.1245,38.5589,19.2069,33.4348,1.58612
2668.35,3.42624,60.4787,42.3932,20.8891,36.8894,1.6273
2320.79,3.36564,60.7609,46.6353,22.7792,40.6935,1.66871
2018.51,3.30503,61.0492,51.3193,24.8415,44.9062,1.71028
1755.6,3.24443,61.2805,56.5041,27.1514,49.5532,1.75208
1526.93,3.18382,61.5537,62.2269,29.6408,54.7138,1.79398
1328.04,3.12321,61.7166,68.5976,32.5038,60.408,1.83631
1155.06,3.0626,61.9741,75.5358,35.4921,66.6781,1.87815
1004.62,3.002,62.167,83.4572,38.9658,73.8022,1.92146
873.764,2.94139,62.3977,92.0542,42.6517,81.5771,1.96404
759.956,2.88079,62.839,101.436,46.3046,90.2499,2.00619
660.971,2.82018,62.9354,112.028,50.9722,99.7604,2.04933
574.878,2.75958,63.3904,123.924,55.5064,110.798,2.09316
500,2.69897,63.4531,136.392,60.9579,122.012,2.13479
434.875,2.63836,63.6494,150.757,66.9152,135.092,2.17828
378.232,2.57776,63.8244,166.702,73.5362,149.606,2.22194
328.967,2.51715,64.0237,184.392,80.7636,165.764,2.26574
286.118,2.45655,64.2058,203.941,88.7429,183.621,2.3095
248.851,2.39594,64.4345,225.64,97.3734,203.548,2.35342
216.438,2.33533,64.5646,249.616,107.208,225.421,2.39727
188.247,2.27473,64.7992,276.522,117.741,250.203,2.44173
163.727,2.21412,64.8707,305.742,129.837,276.804,2.48536
142.402,2.15352,65.0433,339.078,143.068,307.417,2.5303
123.854,2.09291,65.1807,375.88,157.779,341.163,2.57505
107.722,2.0323,65.3184,415.694,173.583,377.717,2.61877
93.6909,1.9717,65.4981,460.511,190.984,419.041,2.66324
81.4875,1.91109,65.5726,510.431,211.084,464.74,2.70794
70.8737,1.85049,65.774,565.942,232.227,516.102,2.75277
61.6423,1.78988,65.6043,628.762,259.702,572.623,2.79849
53.6134,1.72927,65.9692,696.173,283.501,635.834,2.84272
46.6302,1.66867,66.2443,772.109,311.034,706.69,2.88768
40.5565,1.60806,66.4037,857.139,343.104,785.472,2.93305
35.274,1.54745,66.5759,950.559,377.879,872.221,2.97798
30.6795,1.48685,66.7559,1054.26,416.065,968.691,3.02295
26.6835,1.42624,66.9559,1170.52,458.188,1077.12,3.06838
23.2079,1.36564,67.1127,1301.83,506.308,1199.34,3.11455
20.1851,1.30503,67.4014,1448.1,556.465,1336.92,3.1608
17.556,1.24443,67.6032,1607.84,612.618,1486.56,3.20624
15.2693,1.18382,67.8515,1788.5,674.276,1656.52,3.25249
13.2804,1.12321,68.1439,1986.9,739.676,1844.08,3.29818
11.5506,1.0626,68.425,2217.5,815.416,2062.13,3.34586
10.0462,1.002,68.7033,2470.61,897.319,2301.9,3.3928
8.73764,0.941394,69.0286,2754.59,985.871,2572.12,3.44006
7.59956,0.880788,69.2335,3076.53,1090.82,2876.66,3.48806
6.60971,0.820182,69.6347,3437.24,1196.17,3222.38,3.53621
5.74879,0.759576,69.9147,3839.1,1318.42,3605.62,3.58423
5,0.69897,70.265,4296.75,1450.88,4044.37,3.63314
4.34874,0.638363,70.6092,4800.79,1593.91,4528.47,3.68131
3.78232,0.577758,70.8772,5391.9,1766.35,5094.37,3.73174
3.28967,0.517152,71.2587,6012.98,1931.95,5694.16,3.77909
2.86118,0.456545,71.5836,6746.56,2131.38,6401.04,3.82908
2.48851,0.395939,71.9071,7586.19,2355.96,7211.09,3.88002
2.16438,0.335334,72.2169,8498.7,2595.63,8092.63,3.92935
1.88247,0.274728,72.3011,9598.97,2918.22,9144.62,3.98222
1.63727,0.21412,72.685,10686.7,3180.63,10202.4,4.02884
1.42402,0.153516,72.9511,11963,3507.42,11437.3,4.07784
1.23854,0.09291,73.3484,13352.6,3826.21,12792.7,4.12557
1.07722,0.0323044,73.1544,15295.5,4432.55,14639.2,4.18456
0.936909,-0.0283026,73.8821,16711.6,4639.38,16054.7,4.22302
0.814875,-0.088909,73.5329,19003.2,5386.75,18223.8,4.27883
0.708737,-0.149515,73.7237,21448.8,6011.45,20589.2,4.331403
0.616423,-0.210121,73.9183,24211.3,6706.72,23263.9,4.38402
0.536134,-0.270727,74.1052,27297.8,7476.12,26254.1,4.43613
0.466302,-0.331333,74.1925,31121.2,8477.62,29944.3,4.49306
0.405565,-0.39194,74.3408,35029,9454.83,33728.8,4.54443
0.35274,-0.452545,74.5186,39610.9,10573.2,38173.7,4.59781
0.306795,-0.513152,74.6683,44895.2,11870.6,43297.5,4.6522
0.266835,-0.573757,74.8115,50996.8,13361,49215.5,4.70754
0.232079,-0.634364,74.8392,58468.9,15291.3,56433.9,4.76692
0.201851,-0.694969,74.7766,68660.2,18029,66250.8,4.83671
0.17556,-0.755574,74.5687,82079.2,21839.9,79120.3,4.91423
0.152693,-0.816181,74.4729,98269.9,26306.3,94683.4,4.99242
0.132804,-0.876789,74.5579,123190,32801.2,118743,5.09058
0.115506,-0.937395,74.5563,164412,43781.4,158476,5.21593
0.100462,-0.997998,73.9589,257315,71103,247296,5.41047
0.0873764,-1.05861,74.8429,370882,96972.9,357980,5.56924
0.0759956,-1.11921,74.3538,485744,131003,467745,5.68641
0.0660971,-1.17982,73.9865,704268,194282,676940,5.84774
0.0574878,-1.24042,73.7667,870970,243479,836245,5.94
0.05,-1.30103,73.0276,1686110,492194,1612680,6.22689

File: Book15.csv
PVDF0.45-1(4),,,,,,
freq / Hz,Log(f / Hz),neg. Phase / бу,Z / Ohm,Z' / Ohm,Z'' / Ohm,Log(Z / Ohm)
50000,4.69897,45.616,3.4282,2.3979,2.45003,0.535066
43487.4,4.63836,46.1842,3.88428,2.68925,2.80277,0.589311
37823.2,4.57776,46.2282,4.43636,3.06902,3.2035,0.647027
32896.7,4.51715,45.0773,5.15938,3.64331,3.65315,0.712598
28611.8,4.45655,45.4105,5.74212,4.0311,4.08928,0.759072
24885.1,4.39594,45.5023,6.34973,4.45041,4.52912,0.802755
21643.8,4.33533,46.0458,6.92755,4.80829,4.98711,0.84058
18824.7,4.27473,46.6015,7.54237,5.18213,5.48023,0.877508
16372.7,4.21412,47.0683,8.1843,5.57454,5.99227,0.912982
14240.2,4.15352,47.2581,8.92132,6.05488,6.55198,0.950429
12385.4,4.09291,47.5088,9.66443,6.5281,7.12636,0.985176
10772.2,4.0323,47.8432,10.4687,7.02617,7.76053,1.01989
9369.09,3.9717,48.2919,11.3165,7.52928,8.44826,1.05371
8148.75,3.91109,48.5997,12.24,8.09448,9.18129,1.08778
7087.37,3.85049,48.8828,13.2565,8.71748,9.98697,1.12243
6164.23,3.78988,49.1736,14.324,9.36456,10.8388,1.15606
5361.34,3.72927,49.4425,15.4711,10.0595,11.7542,1.18952
4663.02,3.66867,49.6632,16.7239,10.825,12.7478,1.22334
4055.65,3.60806,49.8836,18.0601,11.6369,13.8112,1.25672
3527.4,3.54745,50.1164,19.5149,12.5136,14.9748,1.29037
3067.95,3.48685,50.3862,21.0636,13.4303,16.2265,1.32353
2668.35,3.42624,50.616,22.7646,14.4445,17.595,1.35726
2320.79,3.36564,50.6158,24.7285,15.6906,19.1129,1.3932
2018.51,3.30503,50.8588,26.7296,16.8726,20.7313,1.42699
1755.6,3.24443,51.0225,28.943,18.2056,22.5001,1.46154
1526.93,3.18382,51.3466,31.2456,19.5162,24.4009,1.49479
1328.04,3.12321,51.5877,33.871,21.0446,26.54,1.52983
1155.06,3.0626,51.8227,36.5811,22.6107,28.7565,1.56326
1004.62,3.002,52.0565,39.6127,24.3572,31.2393,1.59783
873.764,2.94139,52.266,42.8885,26.2476,33.9188,1.63234
759.956,2.88079,52.708,46.3926,28.1082,36.908,1.66645
660.971,2.82018,52.8716,50.3779,30.4083,40.1655,1.70224
574.878,2.75958,53.1328,54.5116,32.7049,43.6108,1.73649
500,2.69897,53.3762,59.0988,35.2559,47.4309,1.77158
434.875,2.63836,53.6403,64.1564,38.0353,51.6658,1.80724
378.232,2.57776,53.8629,69.6963,41.1012,56.2873,1.84321
328.967,2.51715,54.083,75.7338,44.4264,61.3344,1.87929
286.118,2.45655,54.2948,82.2312,47.9914,66.7743,1.91504
248.851,2.39594,54.4537,89.3062,51.9192,72.6636,1.95088
216.438,2.33533,54.6956,97.0615,56.0939,79.2111,1.98705
188.247,2.27473,54.8781,105.592,60.7491,86.3671,2.02363
163.727,2.21412,55.0355,114.805,65.7911,94.0833,2.05996
142.402,2.15352,55.208,124.81,71.2165,102.498,2.09625
123.854,2.09291,55.3784,136.011,77.2755,111.927,2.13357
107.722,2.0323,55.5253,148.075,83.8165,122.069,2.17048
93.6909,1.9717,55.7303,161.295,90.8234,133.293,2.20762
81.4875,1.91109,55.8093,175.918,98.8571,145.515,2.24531
70.8737,1.85049,56.0013,191.705,107.196,158.933,2.28263
61.6423,1.78988,56.2582,208.953,116.063,173.755,2.32005
53.6134,1.72927,56.3627,228.048,126.324,189.864,2.35803
46.6302,1.66867,56.5457,248.84,137.178,207.614,2.39592
40.5565,1.60806,56.7288,271.672,149.04,227.141,2.43404
35.274,1.54745,56.9011,296.286,161.797,248.207,2.47171
30.6795,1.48685,57.0606,323.552,175.932,271.54,2.50994
26.6835,1.42624,57.2472,353.89,191.46,297.626,2.54887
23.2079,1.36564,57.4134,387.603,208.753,326.586,2.58839
20.1851,1.30503,57.5974,424.915,227.697,358.757,2.6283
17.556,1.24443,57.7393,465.151,248.285,393.345,2.66759
15.2693,1.18382,57.8471,509.831,271.322,431.639,2.70743
13.2804,1.12321,57.9165,558.027,296.399,472.802,2.74666
11.5506,1.0626,57.8739,611.943,325.422,518.242,2.78671
10.0462,1.002,57.8674,671.535,357.177,568.668,2.82707
8.73764,0.941394,57.7834,737.014,392.918,623.543,2.86748
7.59956,0.880788,57.6635,809.233,432.851,683.738,2.90807
6.60971,0.820182,57.4589,888.582,477.972,749.08,2.9487
5.74879,0.759576,57.2865,973.82,526.289,819.356,2.98848
5,0.69897,57.0165,1070.76,582.921,898.184,3.02969
4.34874,0.638363,56.6947,1177.21,646.404,983.859,3.07085
3.78232,0.577758,56.2268,1299.56,722.432,1080.25,3.1138
3.28967,0.517152,55.8456,1427.41,801.381,1181.22,3.15455
2.86118,0.456545,55.3157,1563.13,889.505,1285.36,3.194
2.48851,0.395939,54.7595,1717.79,991.18,1402.98,3.23497
2.16438,0.335334,54.2421,1880.53,1098.91,1526.04,3.27428
1.88247,0.274728,53.6005,2054.79,1219.34,1653.9,3.31277
1.63727,0.21412,52.9906,2230.98,1342.93,1781.52,3.3485
1.42402,0.153516,51.9758,2436.63,1500.95,1919.46,3.38679
1.23854,0.09291,50.9334,2665.18,1679.66,2069.29,3.42573
1.07722,0.0323044,50.2135,2890.18,1849.51,2220.91,3.46092
0.936909,-0.0283026,49.0827,3145.88,2060.45,2377.2,3.49774
0.814875,-0.088909,45.0363,3270.27,2310.97,2313.9,3.51458
0.708737,-0.149515,49.0804,3981.72,2608.02,3008.7,3.60007
0.616423,-0.210121,49.4313,4539.97,2952.61,3448.69,3.65705
0.536134,-0.270727,48.7368,4991.01,3291.66,3751.68,3.69819
0.466302,-0.331333,47.5073,5484.93,3705.05,4044.39,3.73917
0.405565,-0.39194,48.3428,6070.68,4035.01,4535.62,3.78324
0.35274,-0.452545,47.7818,6649.58,4468.22,4924.62,3.82279
0.306795,-0.513152,50.3061,7195.42,4595.62,5536.64,3.85706
0.266835,-0.573757,49.0637,8107.08,5311.92,6124.41,3.90886
0.232079,-0.634364,48.421,8863.38,5882.2,6630.18,3.9476
0.201851,-0.694969,47.171,9646.91,6558.1,7074.9,3.98439
0.17556,-0.755574,45.9799,10509.7,7303.31,7557.49,4.02159
0.152693,-0.816181,44.5029,11431.8,8153.36,8013.1,4.05811
0.132804,-0.876789,43.2549,12447.6,9065.73,8529.65,4.09509
0.115506,-0.937395,41.5666,13490.5,10093.4,8950.84,4.13003
0.100462,-0.997998,39.8401,14619.2,11225.2,9365.78,4.16492
0.0873764,-1.05861,37.9568,15975.8,12596.5,9826.18,4.20346
0.0759956,-1.11921,37.2402,17970.5,14306.4,10875,4.25456
0.0660971,-1.17982,46.8007,27593.7,18889,20115.2,4.44081
0.0574878,-1.24042,50.7339,35461.7,22444.5,27455,4.54976
0.05,-1.30103,45.991,37120.3,25790.1,26698.1,4.56961

File: Book16.csv
PVDF0.2-3(3),,,,,,
freq / Hz,Log(f / Hz),neg. Phase / бу,Z / Ohm,Z' / Ohm,Z'' / Ohm,Log(Z / Ohm)
50000,4.69897,34.6398,4.40743,3.62617,2.50525,0.644185
43487.4,4.63836,35.8297,5.00904,4.06113,2.93218,0.6997545
37823.2,4.57776,38.3825,5.4066,4.23814,3.357,0.732924
32896.7,4.51715,36.612,6.61181,5.30725,3.94324,0.82032
28611.8,4.45655,33.0406,8.44955,7.08313,4.60697,0.926834
24885.1,4.39594,35.3325,8.90828,7.26746,5.15184,0.949794
21643.8,4.33533,38.5247,9.21971,7.21295,5.74251,0.964717
18824.7,4.27473,42.875,9.36772,6.86504,6.37381,0.971634
16372.7,4.21412,44.5991,10.1559,7.23135,7.13085,1.00672
14240.2,4.15352,45.815,11.116,7.74762,7.97123,1.04595
12385.4,4.09291,46.6332,12.2375,8.40305,8.89631,1.08769
10772.2,4.0323,49.1779,13.1071,8.56825,9.91867,1.11751
9369.09,3.9717,51.6385,14.0545,8.72253,11.0203,1.14782
8148.75,3.91109,52.5019,15.4705,9.41743,12.2739,1.1895
7087.37,3.85049,53.1915,17.042,10.2106,13.6446,1.23152
6164.23,3.78988,54.0885,18.6984,10.9673,15.1443,1.2718
5361.34,3.72927,54.8982,20.5383,11.8102,16.803,1.31256
4663.02,3.66867,55.6474,22.605,12.7557,18.6623,1.3542
4055.65,3.60806,56.2875,24.8691,13.803,20.687,1.39566
3527.4,3.54745,56.8493,27.3577,14.9604,22.9048,1.43708
3067.95,3.48685,57.6004,30.0194,16.085,25.3463,1.4774
2668.35,3.42624,58.3337,33.0268,17.3382,28.1098,1.51887
2320.79,3.36564,59.3037,36.1763,18.4676,31.1075,1.55842
2018.51,3.30503,59.7233,39.8835,20.1083,34.4434,1.60079
1755.6,3.24443,60.1372,43.9227,21.8702,38.0907,1.64269
1526.93,3.18382,60.6231,48.449,23.7668,42.219,1.68528
1328.04,3.12321,61.0129,53.4007,25.8787,46.7111,1.72755
1155.06,3.0626,61.3839,58.9488,28.2329,51.7482,1.77047
1004.62,3.002,61.7529,64.999,30.7624,57.2585,1.81291
873.764,2.94139,62.0726,71.4438,33.4608,63.1236,1.85396
759.956,2.88079,62.5789,79.1667,36.4583,70.272,1.89854
660.971,2.82018,62.8817,87.3579,39.8203,77.7544,1.9413
574.878,2.75958,63.1517,96.489,43.5773,86.088,1.98448
500,2.69897,63.4774,106.742,47.6659,95.5087,2.02834
434.875,2.63836,63.6941,118.088,52.3321,105.859,2.07221
378.232,2.57776,63.9797,130.394,57.2024,117.177,2.11526
328.967,2.51715,64.2381,143.817,62.5075,129.523,2.15781
286.118,2.45655,64.4655,159.032,68.5514,143.499,2.20148
248.851,2.39594,64.705,175.976,75.191,159.104,2.24545
216.438,2.33533,64.9272,194.62,82.4739,176.281,2.28919
188.247,2.27473,65.1466,215.31,90.4944,195.369,2.33306
163.727,2.21412,65.3374,238.038,99.3272,216.324,2.37665
142.402,2.15352,65.5747,263.913,109.13,240.293,2.42146
123.854,2.09291,65.7406,292.449,120.158,266.624,2.46605
107.722,2.0323,65.8951,323.782,132.235,295.548,2.51025
93.6909,1.9717,66.1236,359.727,145.605,328.942,2.55597
81.4875,1.91109,66.2071,398.234,160.66,364.388,2.60014
70.8737,1.85049,66.4097,441.625,176.736,404.719,2.64505
61.6423,1.78988,66.8155,489.969,192.897,450.4,2.69017
53.6134,1.72927,66.7674,545.015,214.989,500.82,2.73641
46.6302,1.66867,67.0247,604.944,236.131,556.956,2.78172
40.5565,1.60806,67.2121,672.628,260.523,620.126,2.82777
35.274,1.54745,67.4629,745.765,285.839,688.812,2.8726
30.6795,1.48685,67.7099,828.357,314.193,766.458,2.91822
26.6835,1.42624,67.9713,921.814,345.746,854.518,2.96464
23.2079,1.36564,68.2427,1025.91,380.279,952.823,3.01111
20.1851,1.30503,68.4785,1143.28,419.41,1063.57,3.05815
17.556,1.24443,68.7065,1271.87,461.874,1185.04,3.10444
15.2693,1.18382,68.9982,1416.69,507.738,1322.58,3.15127
13.2804,1.12321,69.2838,1577.32,557.96,1475.34,3.19792
11.5506,1.0626,69.5889,1760.14,613.853,1649.63,3.24555
10.0462,1.002,69.8779,1966.2,676.417,1846.19,3.29363
8.73764,0.941394,70.1858,2196.14,744.426,2066.12,3.34166
7.59956,0.880788,70.3994,2447.09,820.906,2305.29,3.38865
6.60971,0.820182,70.7277,2742.23,905.095,2588.56,3.4381
5.74879,0.759576,71.0318,3063.68,995.827,2897.32,3.48624
5,0.69897,71.3843,3429.05,1094.62,3249.65,3.53517
4.34874,0.638363,71.6657,3830.97,1205.07,3636.5,3.58331
3.78232,0.577758,72.0185,4292.34,1325.09,4082.68,3.63269
3.28967,0.517152,72.2434,4821.33,1470.38,4591.64,3.68317
2.86118,0.456545,72.5767,5388.05,1613.34,5140.83,3.73143
2.48851,0.395939,72.8587,6068.45,1788.55,5798.89,3.78308
2.16438,0.335334,73.1184,6788.37,1971.31,6495.84,3.83177
1.88247,0.274728,73.3034,7634.33,2193.37,7312.46,3.88277
1.63727,0.21412,73.9812,8373.99,2310.83,8048.84,3.92293
1.42402,0.153516,73.9394,9524.64,2635.02,9152.89,3.97885
1.23854,0.09291,73.932,10870.6,3008.76,10446,4.03625
1.07722,0.0323044,74.62,11911.1,3159.04,11484.5,4.07595
0.936909,-0.0283026,74.5646,13540.6,3603.85,13052.2,4.13164
0.814875,-0.088909,74.3357,15376.9,4151.75,14805.8,4.18687
0.708737,-0.149515,74.759,17137.3,4505.06,16534.6,4.23394
0.616423,-0.210121,74.9567,19282.9,5004.88,18622.1,4.28517
0.536134,-0.270727,75.1429,21787.1,5586.4,21058.7,4.3382
0.466302,-0.331333,75.2772,24649.8,6264.55,23840.4,4.39181
0.405565,-0.39194,75.623,27475.8,6822.25,26615.3,4.43895
0.35274,-0.452545,75.6947,31136.8,7693.55,30171.3,4.49327
0.306795,-0.513152,75.8272,35236.5,8627.55,34164,4.54699
0.266835,-0.573757,75.7979,39949.4,9801.3,38728.4,4.60151
0.232079,-0.634364,76.1507,44621.8,10681.1,43324.6,4.64955
0.201851,-0.694969,76.088,51124.3,12291.9,49624.6,4.70863
0.17556,-0.755574,75.9707,58314.2,14136.4,56574.8,4.76577
0.152693,-0.816181,76.2004,66294.7,15813.1,64381.1,4.82148
0.132804,-0.876789,76.2999,75305.7,17835.4,73163.2,4.87683
0.115506,-0.937395,76.258,86541.9,20558,84064.6,4.93723
0.100462,-0.997998,76.5329,98973.2,23049.6,96251.9,4.99552
0.0873764,-1.05861,76.2807,114950,27262.1,111670,5.06051
0.0759956,-1.11921,76.1368,137484,32941.8,133479,5.13825
0.0660971,-1.17982,75.355,176436,44608.3,170704,5.24659
0.0574878,-1.24042,109.37,1111570,-368680,1048650,6.04594
0.05,-1.30103,61.1096,4702120,2271760,4116920,6.67229

File: Book18.csv
PVDF0.2-1(3),,,,,,
freq / Hz,Log(f / Hz),neg. Phase / бу,Z / Ohm,Z' / Ohm,Z'' / Ohm,Log(Z / Ohm)
50000,4.69897,56.4107,4.53214,2.50734,3.77539,0.656303
43487.4,4.63836,56.3636,5.42627,3.00572,4.51774,0.7345014
37823.2,4.57776,56.3416,6.39402,3.54382,5.32211,0.805774
32896.7,4.51715,56.4363,7.37055,4.07492,6.14167,0.8675
28611.8,4.45655,55.8157,8.4964,4.77376,7.02852,0.929235
24885.1,4.39594,53.52,9.93185,5.9049,7.98585,0.99703
21643.8,4.33533,53.9821,11.01,6.47431,8.90528,1.04179
18824.7,4.27473,54.6234,12.1597,7.03986,9.91462,1.08492
16372.7,4.21412,54.8221,13.4415,7.7439,10.9867,1.12845
14240.2,4.15352,54.994,14.8429,8.51479,12.1577,1.17152
12385.4,4.09291,55.1869,16.3495,9.33393,13.4232,1.2135
10772.2,4.0323,55.3945,17.9785,10.2104,14.7978,1.25475
9369.09,3.9717,55.5344,19.7526,11.1782,16.2853,1.29562
8148.75,3.91109,55.7669,21.6388,12.1731,17.89,1.33523
7087.37,3.85049,55.9468,23.6848,13.2626,19.6233,1.37447
6164.23,3.78988,56.1799,25.9602,14.4491,21.5674,1.41431
5361.34,3.72927,56.3727,28.4462,15.7532,23.686,1.45402
4663.02,3.66867,56.5852,31.123,17.1393,25.9786,1.49308
4055.65,3.60806,56.854,34.0254,18.6042,28.4888,1.5318
3527.4,3.54745,57.1047,37.2173,20.2129,31.25,1.57074
3067.95,3.48685,57.4064,40.7208,21.9354,34.3078,1.60982
2668.35,3.42624,57.628,44.5633,23.8598,37.6377,1.64898
2320.79,3.36564,57.9594,48.7525,25.8642,41.3262,1.688
2018.51,3.30503,58.2292,53.3209,28.0747,45.3313,1.7269
1755.6,3.24443,58.5169,58.4514,30.5261,49.8471,1.76679
1526.93,3.18382,58.8827,64.1557,33.1551,54.9244,1.80724
1328.04,3.12321,59.11,70.4136,36.1498,60.4258,1.84766
1155.06,3.0626,59.3476,77.0363,39.2752,66.2725,1.8867
1004.62,3.002,59.7637,84.6082,42.6059,73.0978,1.92741
873.764,2.94139,59.631,92.9781,47.0067,80.2203,1.96838
759.956,2.88079,60.1084,102.314,50.9896,88.7035,2.00994
660.971,2.82018,60.1264,112.591,56.0805,97.631,2.0515
574.878,2.75958,60.6113,123.736,60.7212,107.813,2.0925
500,2.69897,60.8039,135.866,66.2755,118.605,2.13311
434.875,2.63836,61.0795,149.66,72.3751,130.996,2.17511
378.232,2.57776,61.2378,164.863,79.3281,144.523,2.21712
328.967,2.51715,61.436,181.607,86.8336,159.502,2.25913
286.118,2.45655,61.6462,200.058,95.0104,176.057,2.30116
248.851,2.39594,61.8708,220.415,103.917,194.381,2.34324
216.438,2.33533,62.0139,242.886,113.976,214.483,2.3854
188.247,2.27473,62.0962,267.89,125.369,236.744,2.42796
163.727,2.21412,62.2962,295.367,137.316,261.506,2.47036
142.402,2.15352,62.459,326.49,150.963,289.492,2.51387
123.854,2.09291,62.4949,360.091,166.3,319.39,2.55641
107.722,2.0323,62.614,396.599,182.429,352.152,2.59835
93.6909,1.9717,62.7642,437.871,200.393,389.324,2.64135
81.4875,1.91109,62.7698,482.96,220.987,429.436,2.68391
70.8737,1.85049,62.8527,532.663,243.044,473.983,2.72645
61.6423,1.78988,63.2739,589.971,265.326,526.942,2.77083
53.6134,1.72927,63.1715,649.916,293.321,579.96,2.81286
46.6302,1.66867,63.3286,715.981,321.385,639.798,2.8549
40.5565,1.60806,63.5046,790.132,352.498,707.145,2.8977
35.274,1.54745,63.6667,870.462,386.13,780.134,2.93975
30.6795,1.48685,63.8459,960.918,423.56,862.532,2.98269
26.6835,1.42624,64.0835,1062.01,464.163,955.206,3.02613
23.2079,1.36564,64.3197,1173.41,508.499,1057.51,3.06945
20.1851,1.30503,64.5634,1297.45,557.273,1171.68,3.11309
17.556,1.24443,64.818,1432.55,609.541,1296.4,3.15611
15.2693,1.18382,65.1308,1584.85,666.507,1437.89,3.19999
13.2804,1.12321,65.4545,1753.24,728.325,1594.81,3.24384
11.5506,1.0626,65.8246,1941.17,794.967,1770.92,3.28806
10.0462,1.002,66.1768,2155.44,870.614,1971.79,3.33354
8.73764,0.941394,66.5449,2389.08,950.925,2191.68,3.37823
7.59956,0.880788,66.8142,2649.43,1043.12,2435.44,3.42315
6.60971,0.820182,67.2202,2945.17,1140.34,2715.45,3.46911
5.74879,0.759576,67.6012,3273.39,1247.33,3026.43,3.515
5,0.69897,67.9994,3649.72,1367.25,3383.95,3.56226
4.34874,0.638363,68.4831,4040.59,1481.99,3759,3.60644
3.78232,0.577758,68.7787,4517.69,1635.27,4211.34,3.65492
3.28967,0.517152,69.2313,5021.81,1780.71,4695.49,3.70086
2.86118,0.456545,69.5582,5608.05,1958.65,5254.9,3.74881
2.48851,0.395939,69.9297,6284.99,2156.83,5903.32,3.7983
2.16438,0.335334,70.4038,6973.67,2338.89,6569.75,3.84346
1.88247,0.274728,70.9563,7675.44,2504.41,7255.36,3.8851
1.63727,0.21412,70.9724,8682.15,2830.58,8207.77,3.93863
1.42402,0.153516,71.3187,9680.45,3100.68,9170.44,3.9859
1.23854,0.09291,71.2096,11051.5,3559.77,10462.5,4.04342
1.07722,0.0323044,71.7782,12172.3,3806.24,11561.9,4.08537
0.936909,-0.0283026,72.2203,13474.7,4114.63,12831.2,4.12952
0.814875,-0.088909,71.753,15359.8,4809.37,14587.4,4.18639
0.708737,-0.149515,72.1632,17078.6,5231.31,16257.7,4.23245
0.616423,-0.210121,72.3339,19232.7,5836.53,18325.7,4.28404
0.536134,-0.270727,72.5484,21604.9,6479.34,20610.5,4.33455
0.466302,-0.331333,72.7541,24285.3,7199.94,23193.5,4.38534
0.405565,-0.39194,73.0186,27165.4,7934,25981,4.43402
0.35274,-0.452545,73.1037,30584.3,8889.02,29264.1,4.4855
0.306795,-0.513152,73.2199,34456.9,9947.68,32989.7,4.53728
0.266835,-0.573757,73.4253,38521.4,10988.8,36920.8,4.5857
0.232079,-0.634364,73.5094,43459,12336.2,41671.3,4.63808
0.201851,-0.694969,73.4441,49359.6,14065,47313.2,4.69337
0.17556,-0.755574,73.7951,54667.4,15256.2,52495.5,4.73773
0.152693,-0.816181,73.6666,62562,17594,60037.1,4.79631
0.132804,-0.876789,73.7304,70844.7,19847.6,68007.6,4.85031
0.115506,-0.937395,73.6554,81007.3,22796.5,77733.5,4.90852
0.100462,-0.997998,73.6155,93200.8,26290.3,89415.9,4.96942
0.0873764,-1.05861,73.5553,107936,30555.5,103520,5.03317
0.0759956,-1.11921,73.4199,126961,36229,121682,5.10367
0.0660971,-1.17982,73.2094,151759,43839.3,145289,5.18115
0.0574878,-1.24042,71.9916,209813,64865.1,199535,5.32183
0.05,-1.30103,67.7517,2334540,883907,2160730,6.3682