Folder: hte-data-processing/membrane conductivity analysis/EIS data

File: Book2.csv
Sartorius_CelluloseNitrate5-2(1),,,,,,
freq / Hz,Log(f / Hz),neg. Phase / бу,Z / Ohm,Z' / Ohm,Z'' / Ohm,Log(Z / Ohm)
50000,4.69897,55.3993,2.97879,1.69152,2.45193,0.47404
43487.4,4.63836,57.6403,3.40062,1.82013,2.87252,0.531558
37823.2,4.57776,57.3363,4.11189,2.21921,3.46161,0.614041
32896.7,4.51715,56.9501,4.89471,2.66942,4.10272,0.689727
28611.8,4.45655,56.8205,5.72377,3.13241,4.79057,0.757682
24885.1,4.39594,56.7623,6.55934,3.59526,5.48626,0.81686
21643.8,4.33533,56.7411,7.45105,4.08633,6.23058,0.872217
18824.7,4.27473,56.7799,8.38839,4.59564,7.01749,0.923679
16372.7,4.21412,56.8088,9.41147,5.15217,7.87597,0.973657
14240.2,4.15352,56.8943,10.4826,5.72547,8.78094,1.02047
12385.4,4.09291,57.0943,11.6399,6.32349,9.7725,1.06595
10772.2,4.0323,57.3762,12.9024,6.95594,10.8667,1.11067
9369.09,3.9717,57.744,14.2367,7.59817,12.0396,1.15341
8148.75,3.91109,58.0155,15.7368,8.33563,13.3478,1.19692
7087.37,3.85049,58.2161,17.3786,9.15361,14.7725,1.24001
6164.23,3.78988,58.3945,19.1515,10.0367,16.3109,1.2822
5361.34,3.72927,58.6717,21.1156,10.9789,18.037,1.3246
4663.02,3.66867,58.9388,23.255,11.9985,19.9206,1.36652
4055.65,3.60806,59.0961,25.6292,13.1632,21.9907,1.40874
3527.4,3.54745,59.3368,28.1939,14.3786,24.2518,1.45016
3067.95,3.48685,59.5315,31.0454,15.742,26.7583,1.492
2668.35,3.42624,59.7616,34.1632,17.2046,29.5149,1.53356
2320.79,3.36564,60.0192,37.6081,18.7931,32.5759,1.57528
2018.51,3.30503,60.1501,41.4129,20.6124,35.9188,1.61714
1755.6,3.24443,60.4128,45.6495,22.5393,39.697,1.65944
1526.93,3.18382,60.6093,50.2598,24.6656,43.791,1.70122
1328.04,3.12321,60.8663,55.3877,26.9655,48.3804,1.74341
1155.06,3.0626,61.1219,60.9666,29.4437,53.3854,1.78509
1004.62,3.002,61.3804,67.2956,32.2341,59.0734,1.82799
873.764,2.94139,61.5569,73.8099,35.1546,64.9004,1.86811
759.956,2.88079,61.6264,81.7536,38.8509,71.9323,1.91251
660.971,2.82018,61.8029,90.1335,42.5886,79.4371,1.95489
574.878,2.75958,62.082,99.3305,46.5074,87.7703,1.99708
500,2.69897,62.2584,109.425,50.9355,96.8469,2.03912
434.875,2.63836,62.47,120.915,55.8885,107.223,2.08248
378.232,2.57776,62.6843,133.301,61.1711,118.437,2.12483
328.967,2.51715,62.831,147.265,67.2438,131.017,2.1681
286.118,2.45655,63.0021,162.696,73.8572,144.966,2.21138
248.851,2.39594,63.1923,179.822,81.0991,160.495,2.25484
216.438,2.33533,63.3676,198.886,89.1534,177.784,2.2986
188.247,2.27473,63.5248,219.922,98.0435,196.858,2.34227
163.727,2.21412,63.6904,243.062,107.731,217.884,2.38572
142.402,2.15352,63.8246,268.243,118.328,240.735,2.42853
123.854,2.09291,63.9519,297.316,130.559,267.116,2.47322
107.722,2.0323,64.2158,328.994,143.106,296.239,2.51719
93.6909,1.9717,64.4076,364.107,157.282,328.384,2.56123
81.4875,1.91109,64.4508,403.104,173.853,363.686,2.60542
70.8737,1.85049,64.6201,446.053,191.186,403.003,2.64939
61.6423,1.78988,64.9763,492.185,208.191,445.985,2.69213
53.6134,1.72927,65.1059,546.988,230.251,496.166,2.73798
46.6302,1.66867,65.2009,606.193,254.26,550.293,2.78261
40.5565,1.60806,65.4028,671.652,279.566,610.704,2.82714
35.274,1.54745,65.6689,743.543,306.347,677.501,2.87131
30.6795,1.48685,65.8976,822.814,336.011,751.079,2.9153
26.6835,1.42624,66.1598,913.712,369.311,835.751,2.96081
23.2079,1.36564,66.3973,1014.05,406.017,929.218,3.00606
20.1851,1.30503,66.6862,1126.72,445.92,1034.73,3.05182
17.556,1.24443,66.9623,1249.38,488.926,1149.73,3.09669
15.2693,1.18382,67.2514,1386.56,536.168,1278.7,3.14194
13.2804,1.12321,67.5771,1539.13,587.087,1422.77,3.18728
11.5506,1.0626,67.9145,1712.43,643.857,1586.78,3.23361
10.0462,1.002,68.2314,1909.68,708.223,1773.5,3.28096
8.73764,0.941394,68.5994,2122.62,774.516,1976.27,3.32687
7.59956,0.880788,68.8279,2363.65,853.68,2204.1,3.37358
6.60971,0.820182,69.2362,2638.6,935.425,2467.22,3.42137
5.74879,0.759576,69.6636,2937.85,1021,2754.73,3.46803
5,0.69897,70.0114,3289.86,1124.59,3091.68,3.51718
4.34874,0.638363,70.3921,3666.16,1230.29,3453.57,3.56421
3.78232,0.577758,70.7432,4110.36,1355.61,3880.38,3.61388
3.28967,0.517152,71.0071,4605.88,1498.99,4355.13,3.66331
2.86118,0.456545,71.5044,5139.9,1630.54,4874.41,3.71095
2.48851,0.395939,71.8301,5772.16,1799.96,5484.34,3.76134
2.16438,0.335334,72.1819,6442.97,1971.53,6133.91,3.80909
1.88247,0.274728,72.7861,7118.79,2106.74,6799.91,3.85241
1.63727,0.21412,72.8096,8057.07,2381.24,7697.14,3.90618
1.42402,0.153516,73.1102,9031.12,2623.83,8641.57,3.95574
1.23854,0.09291,73.0835,10336.7,3007.76,9889.47,4.01438
1.07722,0.0323044,73.573,11416.1,3228.41,10950.2,4.05752
0.936909,-0.0283026,74.0099,12661.7,3487.95,12171.8,4.10249
0.814875,-0.088909,73.5361,14488.5,4106.2,13894.5,4.16102
0.708737,-0.149515,73.9481,16131.6,4460.51,15502.7,4.20768
0.616423,-0.210121,74.0225,18279.4,5031.58,17573.2,4.26196
0.536134,-0.270727,74.1722,20664,5636.04,19880.5,4.31521
0.466302,-0.331333,74.4741,23143,6194.77,22298.5,4.36442
0.405565,-0.39194,74.5587,26156.5,6964.2,25212.4,4.41758
0.35274,-0.452545,74.7173,29393.7,7747.63,28354.3,4.46825
0.306795,-0.513152,74.7612,33313,8756.06,32141.6,4.52261
0.266835,-0.573757,75.0864,37132.5,9556.49,35881.7,4.56975
0.232079,-0.634364,74.8893,42567.7,11096.8,41095.9,4.62908
0.201851,-0.694969,75.1113,47732.2,12264.4,46129.7,4.67881
0.17556,-0.755574,75.7771,52162.1,12816,50563.1,4.71736
0.152693,-0.816181,75.0346,61330.2,15837.6,59250,4.78767
0.132804,-0.876789,75.2067,69093.8,17641.9,66803.6,4.83944
0.115506,-0.937395,75.0903,78870.1,20293,76214.8,4.89691
0.100462,-0.997998,74.9775,90342.8,23416.7,87255.2,4.95589
0.0873764,-1.05861,75.0532,102946,26552.1,99463.1,5.01261
0.0759956,-1.11921,74.6781,119288,31520.9,115048,5.0766
0.0660971,-1.17982,74.5791,138527,36835.6,133540,5.14153
0.0574878,-1.24042,74.128,162826,44531.2,156619,5.21172
0.05,-1.30103,73.3156,204370,58674.9,195767,5.31042

File: Book3.csv
Sartorius_CelluloseNitrate5-1(1),,,,,,
freq / Hz,Log(f / Hz),neg. Phase / бу,Z / Ohm,Z' / Ohm,Z'' / Ohm,Log(Z / Ohm)
50000,4.69897,50.7547,7.91418,5.00684,6.12909,0.898406
43487.4,4.63836,49.8473,9.21958,5.94504,7.04678,0.964711
37823.2,4.57776,51.7911,10.0026,6.18694,7.85968,1.00011
32896.7,4.51715,53.0504,10.9339,6.57251,8.73801,1.03878
28611.8,4.45655,51.4439,12.5179,7.80217,9.789,1.09753
24885.1,4.39594,52.7952,13.5898,8.21731,10.824,1.13321
21643.8,4.33533,54.536,14.6286,8.48737,11.9147,1.1652
18824.7,4.27473,54.7457,16.1024,9.29438,13.1492,1.20689
16372.7,4.21412,55.0018,17.6422,10.1187,14.452,1.24655
14240.2,4.15352,55.3821,19.3674,11.0026,15.9386,1.28707
12385.4,4.09291,55.5454,21.2718,12.0346,17.5402,1.3278
10772.2,4.0323,56.0343,23.251,12.9902,19.2837,1.36644
9369.09,3.9717,56.314,25.492,14.1389,21.2117,1.4064
8148.75,3.91109,56.6746,27.9283,15.3436,23.3358,1.44604
7087.37,3.85049,56.8516,30.5844,16.7239,25.607,1.4855
6164.23,3.78988,57.084,33.5728,18.2438,28.1833,1.52599
5361.34,3.72927,57.3623,36.851,19.8747,31.0321,1.56645
4663.02,3.66867,57.5835,40.4155,21.6656,34.1177,1.60655
4055.65,3.60806,57.77,44.3122,23.6325,37.4843,1.64652
3527.4,3.54745,58.0595,48.6352,25.7299,41.2717,1.68695
3067.95,3.48685,58.2373,53.4001,28.1099,45.4027,1.72754
2668.35,3.42624,58.4542,58.566,30.6405,49.9113,1.76765
2320.79,3.36564,58.6114,64.3572,33.5198,54.9388,1.8086
2018.51,3.30503,58.6931,70.8024,36.7905,60.4933,1.85005
1755.6,3.24443,58.8423,77.7877,40.247,66.5666,1.89091
1526.93,3.18382,58.876,85.333,44.1079,73.0494,1.93112
1328.04,3.12321,59.0212,93.8351,48.2989,80.4503,1.97237
1155.06,3.0626,59.3174,103.146,52.6338,88.7066,2.01345
1004.62,3.002,59.363,113.173,57.6728,97.3759,2.05374
873.764,2.94139,59.3808,124.669,63.4975,107.286,2.09576
759.956,2.88079,59.6035,136.493,69.063,117.731,2.13511
660.971,2.82018,59.5827,150.153,76.0217,129.486,2.17653
574.878,2.75958,59.6182,165.613,83.7604,142.87,2.21909
500,2.69897,59.6757,181.694,91.7363,156.835,2.25934
434.875,2.63836,59.7459,199.757,100.645,172.55,2.3005
378.232,2.57776,59.781,219.56,110.506,189.724,2.34155
328.967,2.51715,59.8994,241.395,121.064,208.842,2.38273
286.118,2.45655,59.9249,265.227,132.914,229.519,2.42362
248.851,2.39594,59.9663,291.762,146.03,252.588,2.46503
216.438,2.33533,60.001,320.816,160.403,277.837,2.50626
188.247,2.27473,60.1483,352.851,175.634,306.034,2.54759
163.727,2.21412,60.1593,387.788,192.96,336.372,2.58859
142.402,2.15352,60.2365,426.315,211.632,370.076,2.62973
123.854,2.09291,60.3163,469.255,232.381,407.676,2.67141
107.722,2.0323,60.3799,515.625,254.846,448.244,2.71233
93.6909,1.9717,60.4296,567.521,280.067,493.601,2.75398
81.4875,1.91109,60.5032,624.148,307.315,543.248,2.79529
70.8737,1.85049,60.6511,686.488,336.466,598.378,2.83663
61.6423,1.78988,61.0124,751.197,364.045,657.091,2.87575
53.6134,1.72927,60.9978,831.929,403.355,727.606,2.92009
46.6302,1.66867,61.0908,914.344,442.015,800.405,2.96111
40.5565,1.60806,61.2525,1006.35,484.007,882.318,3.00275
35.274,1.54745,61.4449,1107.51,529.392,972.786,3.04435
30.6795,1.48685,61.5983,1218.62,579.636,1071.94,3.08587
26.6835,1.42624,61.7693,1343.99,635.736,1184.12,3.1284
23.2079,1.36564,62.0322,1480.44,694.291,1307.54,3.17039
20.1851,1.30503,62.2809,1635.18,760.583,1447.52,3.21357
17.556,1.24443,62.5887,1802.9,830.007,1600.48,3.25597
15.2693,1.18382,62.8879,1992.8,908.184,1773.82,3.29946
13.2804,1.12321,63.1676,2201.32,993.637,1964.31,3.34268
11.5506,1.0626,63.4984,2438.91,1088.3,2182.63,3.3872
10.0462,1.002,63.8545,2704.14,1191.58,2427.45,3.43203
8.73764,0.941394,64.2444,2995.25,1301.53,2697.69,3.47643
7.59956,0.880788,64.5003,3315.95,1427.54,2992.94,3.52061
6.60971,0.820182,64.8821,3691.07,1566.79,3342.02,3.56715
5.74879,0.759576,65.2865,4095.51,1712.26,3720.4,3.61231
5,0.69897,65.6099,4579.55,1891.11,4170.85,3.66082
4.34874,0.638363,66.042,5071.1,2059.2,4634.19,3.7051
3.78232,0.577758,66.3958,5680.03,2274.38,5204.8,3.75435
3.28967,0.517152,66.7592,6322.52,2494.84,5809.47,3.80089
2.86118,0.456545,67.1323,7044.19,2737.41,6490.55,3.84783
2.48851,0.395939,67.4262,7903.06,3033.77,7297.58,3.8978
2.16438,0.335334,67.9555,8787.65,3298.24,8145.21,3.94387
1.88247,0.274728,68.0918,9828.49,3667.22,9118.71,3.99249
1.63727,0.21412,68.6028,10896.9,3975.54,10145.8,4.0373
1.42402,0.153516,68.9323,12124.4,4358.36,11313.9,4.08366
1.23854,0.09291,69.7329,13288.5,4603.1,12465.8,4.12348
1.07722,0.0323044,69.4422,15239,5351.19,14268.5,4.18296
0.936909,-0.0283026,69.888,16879.3,5804.06,15850.1,4.22735
0.814875,-0.088909,70.2447,18686.3,6316.03,17586.5,4.27152
0.708737,-0.149515,70.4676,20971.1,7011.48,19764.3,4.32162
0.616423,-0.210121,70.4476,23898.8,7998.18,22520.7,4.37838
0.536134,-0.270727,70.7165,26858.5,8869.83,25351.7,4.42908
0.466302,-0.331333,70.9829,30256.2,9858.96,28604.8,4.48081
0.405565,-0.39194,71.307,33880,10858.5,32092.8,4.52994
0.35274,-0.452545,71.4815,38324,12172.1,36339.6,4.58347
0.306795,-0.513152,71.5361,43574.2,13800.2,41331.1,4.63923
0.266835,-0.573757,71.7618,49145.9,15381.1,46677,4.69149
0.232079,-0.634364,71.8994,55784.2,17331.4,53023.6,4.74651
0.201851,-0.694969,71.9433,63899.9,19806.3,60752.9,4.8055
0.17556,-0.755574,72.4531,71433.2,21536.1,68109.4,4.8539
0.152693,-0.816181,72.0965,84044.2,25836.4,79974.4,4.92451
0.132804,-0.876789,72.167,97264.8,29786.7,92591.5,4.98796
0.115506,-0.937395,72.2392,113449,34607.1,108042,5.0548
0.100462,-0.997998,72.464,132983,40068.6,126803,5.1238
0.0873764,-1.05861,72.2609,163571,49837.4,155794,5.21371
0.0759956,-1.11921,71.821,224039,69897.2,212857,5.35032
0.0660971,-1.17982,71.4932,362663,115115,343908,5.5595
0.0574878,-1.24042,71.3238,508200,162736,481440,5.70603
0.05,-1.30103,70.5884,705874,234599,665749,5.84873

File: Book4.csv
Sartorius_CelluloseNitrate0.45-3(2),,,,,,
freq / Hz,Log(f / Hz),neg. Phase / бу,Z / Ohm,Z' / Ohm,Z'' / Ohm,Log(Z / Ohm)
50000,4.69897,49.9261,3.85631,2.4826,2.95091,0.586172
43487.4,4.63836,51.3395,4.10278,2.56302,3.2037,0.613078
37823.2,4.57776,53.4474,4.4675,2.66066,3.58879,0.650065
32896.7,4.51715,53.5428,5.08201,3.01984,4.08747,0.706036
28611.8,4.45655,52.7736,5.84921,3.53857,4.65744,0.767097
24885.1,4.39594,52.1063,6.62436,4.06867,5.22762,0.821144
21643.8,4.33533,51.562,7.43462,4.62186,5.8234,0.871259
18824.7,4.27473,52.3474,8.12258,4.96186,6.43088,0.909694
16372.7,4.21412,52.3166,8.97989,5.48939,7.10669,0.953271
14240.2,4.15352,52.8254,9.82022,5.93383,7.82473,0.992121
12385.4,4.09291,52.8852,10.7556,6.49005,8.57679,1.03163
10772.2,4.0323,53.0392,11.7678,7.07558,9.403,1.0707
9369.09,3.9717,53.2302,12.8645,7.7007,10.3051,1.10939
8148.75,3.91109,53.3529,14.0519,8.38736,11.2742,1.14774
7087.37,3.85049,53.5489,15.2789,9.07773,12.2898,1.18409
6164.23,3.78988,53.7856,16.599,9.80684,13.3923,1.22008
5361.34,3.72927,53.8738,18.1308,10.6893,14.6446,1.25842
4663.02,3.66867,54.2175,19.7205,11.5308,15.9981,1.29492
4055.65,3.60806,53.1664,21.8028,13.0706,17.4505,1.33851
3527.4,3.54745,52.886,23.8775,14.4078,19.0408,1.37799
3067.95,3.48685,53.5295,25.7885,15.3289,20.7381,1.41143
2668.35,3.42624,54.58,27.7943,16.1086,22.6503,1.44396
2320.79,3.36564,54.5278,30.3791,17.6292,24.7407,1.48257
2018.51,3.30503,54.2259,33.2424,19.4332,26.9705,1.52169
1755.6,3.24443,54.4273,36.073,20.9849,29.341,1.55718
1526.93,3.18382,54.8272,39.1226,22.5364,31.9796,1.59243
1328.04,3.12321,55.456,42.3097,23.9913,34.8501,1.62644
1155.06,3.0626,55.7054,46.0161,25.9277,38.0163,1.66291
1004.62,3.002,55.7041,50.0254,28.1877,41.3279,1.69919
873.764,2.94139,55.064,54.9099,31.4447,45.0147,1.73965
759.956,2.88079,54.0973,60.4657,35.4577,48.9781,1.78151
660.971,2.82018,55.608,64.8637,36.6384,53.525,1.812
574.878,2.75958,55.7831,71.3507,40.1225,59.001,1.8534
500,2.69897,55.9463,78.2957,43.8432,64.869,1.89374
434.875,2.63836,56.1212,85.8746,47.8698,71.2947,1.93386
378.232,2.57776,56.2971,95.0847,52.7612,79.1035,1.97811
328.967,2.51715,56.4291,105.847,58.5298,88.1917,2.02468
286.118,2.45655,56.5518,116.642,64.2909,97.3242,2.06685
248.851,2.39594,56.1936,129.195,71.8824,107.351,2.11125
216.438,2.33533,56.6032,141.915,78.1147,118.482,2.15203
188.247,2.27473,56.5256,157.236,86.7257,131.155,2.19655
163.727,2.21412,56.6289,173.889,95.6496,145.219,2.24027
142.402,2.15352,56.6072,192.706,106.061,160.894,2.2849
123.854,2.09291,56.2666,213.443,118.531,177.506,2.32928
107.722,2.0323,56.1269,235.684,131.36,195.682,2.37233
93.6909,1.9717,56.2643,259.753,144.257,216.013,2.41456
81.4875,1.91109,56.3734,287.625,159.281,239.495,2.45883
70.8737,1.85049,55.3499,320.503,182.226,263.659,2.50583
61.6423,1.78988,56.4673,345.706,190.972,288.17,2.53871
53.6134,1.72927,56.891,380.399,207.787,318.635,2.58024
46.6302,1.66867,56.8436,425.428,232.678,356.161,2.62883
40.5565,1.60806,56.7097,480.685,263.839,401.805,2.68186
35.274,1.54745,56.3626,540.511,299.408,450.007,2.7328
30.6795,1.48685,55.8759,624.785,350.496,517.212,2.79573
26.6835,1.42624,55.7489,722.516,406.647,597.216,2.85885
23.2079,1.36564,55.2586,875.806,499.099,719.678,2.94241
20.1851,1.30503,55.5937,1107.47,625.782,913.716,3.04433
17.556,1.24443,55.5207,1369.53,775.302,1128.94,3.13657
15.2693,1.18382,55.7467,1629.52,917.177,1346.89,3.21206
13.2804,1.12321,56.0752,1823.56,1017.74,1513.14,3.26092
11.5506,1.0626,56.3198,2336.02,1295.46,1943.91,3.36848
10.0462,1.002,56.6024,3059.14,1683.89,2553.98,3.4856
8.73764,0.941394,57.1173,3722.77,2021.17,3126.32,3.57087
7.59956,0.880788,57.5523,4184.42,2245.07,3531.15,3.62164
6.60971,0.820182,58.1626,4639.72,2447.5,3941.67,3.66649
5.74879,0.759576,58.6413,5095.84,2651.84,4351.47,3.70722
5,0.69897,59.2084,5598.85,2866.15,4809.6,3.7481
4.34874,0.638363,59.4548,6154.31,3127.73,5300.27,3.78918
3.78232,0.577758,60.015,6735.31,3366.13,5833.83,3.82836
3.28967,0.517152,60.2664,7454.14,3697.02,6472.73,3.8724
2.86118,0.456545,60.6189,8182.94,4014.68,7130.42,3.91291
2.48851,0.395939,60.8901,9004.6,4380.61,7867.22,3.95446
2.16438,0.335334,61.0869,9897.61,4785.33,8663.91,3.99553
1.88247,0.274728,60.7889,11088.4,5411.48,9678.3,4.04487
1.63727,0.21412,61.9906,11815.7,5548.87,10431.8,4.07246
1.42402,0.153516,61.2098,13332.2,6420.83,11684.2,4.1249
1.23854,0.09291,61.5238,14555.1,6939.8,12794.2,4.16302
1.07722,0.0323044,60.6726,16395,8030.27,14293.7,4.21471
0.936909,-0.0283026,60.4012,18195.9,8987.38,15821.4,4.25997
0.814875,-0.088909,60.1056,19857.6,9897.08,17215.4,4.29793
0.708737,-0.149515,59.3984,22131.6,11266.5,19049.3,4.34501
0.616423,-0.210121,58.569,24748.9,12905.8,21117.5,4.39356
0.536134,-0.270727,57.5585,27640.8,14827.6,23327.2,4.44155
0.466302,-0.331333,56.6682,30507.5,16763.4,25489.1,4.48441
0.405565,-0.39194,55.6231,33529.3,18931.8,27673.1,4.52542
0.35274,-0.452545,54.5457,36950.1,21433,30098.8,4.56762
0.306795,-0.513152,53.5055,40571,24129.4,32615.6,4.60822
0.266835,-0.573757,51.5675,44291.6,27531.4,34695.4,4.64632
0.232079,-0.634364,50.2148,48039.2,30740.8,36915.7,4.6816
0.201851,-0.694969,48.0857,52243.9,34899.9,38877,4.71804
0.17556,-0.755574,45.9504,56771.3,39471.9,40803.7,4.75413
0.152693,-0.816181,43.9635,61196.9,44048.4,42482.9,4.78673
0.132804,-0.876789,41.6518,66147.2,49425,43961.5,4.82051
0.115506,-0.937395,39.9569,69844.2,53537.5,44854.7,4.84413
0.100462,-0.997998,37.8513,75424.6,59555.7,46281.6,4.87751
0.0873764,-1.05861,35.0414,79900.9,65417.8,45876.6,4.90255
0.0759956,-1.11921,32.1662,86618.5,73323.2,46113.7,4.93761
0.0660971,-1.17982,29.651,88761.9,77138.9,43911.9,4.94823
0.0574878,-1.24042,26.4199,94240,84397.4,41931.7,4.97424
0.05,-1.30103,7.64811,80983.8,80263.4,10778,4.9084

File: Book5.csv
Sartorius_CelluloseNitrate0.45-2(2),,,,,,
freq / Hz,Log(f / Hz),neg. Phase / бу,Z / Ohm,Z' / Ohm,Z'' / Ohm,Log(Z / Ohm)
50000,4.69897,37.0091,2.61532,2.08843,1.57427,0.417525
43487.4,4.63836,40.966,2.59368,1.95848,1.70044,0.413916
37823.2,4.57776,42.1723,2.89593,2.14626,1.94422,0.461788
32896.7,4.51715,43.2888,3.23066,2.35162,2.21519,0.509291
28611.8,4.45655,44.3325,3.60802,2.5808,2.52136,0.557269
24885.1,4.39594,44.7187,4.0787,2.8982,2.86988,0.610522
21643.8,4.33533,45.5777,4.50743,3.15493,3.21921,0.653929
18824.7,4.27473,46.4018,4.984,3.43696,3.60938,0.697578
16372.7,4.21412,47.0311,5.48329,3.73742,4.01226,0.739041
14240.2,4.15352,47.4792,6.042,4.08353,4.45315,0.781181
12385.4,4.09291,48.3115,6.60238,4.39111,4.93048,0.819701
10772.2,4.0323,48.9684,7.25156,4.76047,5.47019,0.860431
9369.09,3.9717,49.5049,7.93812,5.15489,6.03663,0.899718
8148.75,3.91109,50.0102,8.67532,5.5752,6.64668,0.938286
7087.37,3.85049,50.5186,9.46785,6.01992,7.30758,0.976251
6164.23,3.78988,50.9694,10.3339,6.50761,8.02745,1.01426
5361.34,3.72927,51.4739,11.2724,7.02126,8.81869,1.05202
4663.02,3.66867,51.9265,12.2685,7.56566,9.65802,1.08879
4055.65,3.60806,52.3155,13.3556,8.16444,10.5695,1.12566
3527.4,3.54745,52.7133,14.5453,8.8116,11.5724,1.16272
3067.95,3.48685,53.1951,15.9004,9.52581,12.7311,1.20141
2668.35,3.42624,53.6434,17.4449,10.3415,14.0491,1.24167
2320.79,3.36564,54.0351,19.0146,11.1671,15.39,1.27909
2018.51,3.30503,54.4422,20.7773,12.0825,16.9029,1.31759
1755.6,3.24443,54.7914,22.6601,13.0648,18.5146,1.35526
1526.93,3.18382,55.1329,24.7023,14.1217,20.2677,1.39274
1328.04,3.12321,55.5154,26.9596,15.2641,22.2222,1.43071
1155.06,3.0626,55.8803,29.4245,16.5049,24.3596,1.46871
1004.62,3.002,56.132,32.1011,17.8894,26.6543,1.50652
873.764,2.94139,56.4621,35.0108,19.3431,29.1822,1.5442
759.956,2.88079,56.7902,38.2812,20.9669,32.0287,1.58299
660.971,2.82018,57.0196,41.89,22.8029,35.1397,1.62211
574.878,2.75958,57.3567,45.8305,24.7213,38.5914,1.66115
500,2.69897,57.6126,50.0943,26.8326,42.3019,1.69979
434.875,2.63836,57.9103,54.817,29.1213,46.442,1.73892
378.232,2.57776,58.1748,59.9727,31.6254,50.9565,1.77795
328.967,2.51715,58.4214,65.6704,34.3894,55.9461,1.81737
286.118,2.45655,58.65,71.934,37.4247,61.432,1.85693
248.851,2.39594,58.907,78.8308,40.7105,67.5052,1.8967
216.438,2.33533,59.1747,87.1472,44.6562,74.8362,1.94025
188.247,2.27473,59.4011,96.0226,48.8779,82.6516,1.98237
163.727,2.21412,59.6456,105.685,53.4078,91.1976,2.02401
142.402,2.15352,59.8568,116.406,58.4547,100.664,2.06598
123.854,2.09291,60.0288,128.26,64.0743,111.109,2.10809
107.722,2.0323,60.2397,141.562,70.2674,122.891,2.15095
93.6909,1.9717,60.4353,156.438,77.1877,136.07,2.19434
81.4875,1.91109,60.5946,172.501,84.6956,150.278,2.23679
70.8737,1.85049,60.8747,192.579,93.7324,168.229,2.28461
61.6423,1.78988,61.219,214.855,103.445,188.313,2.33215
53.6134,1.72927,61.3476,237.961,114.101,208.821,2.37651
46.6302,1.66867,61.5816,261.796,124.591,230.249,2.41796
40.5565,1.60806,61.7946,287.872,136.058,253.689,2.4592
35.274,1.54745,62.0214,316.78,148.615,279.756,2.50076
30.6795,1.48685,62.248,350.153,163.047,309.875,2.54426
26.6835,1.42624,62.5231,387.894,178.971,344.138,2.58871
23.2079,1.36564,62.7815,434.549,198.756,386.431,2.63804
20.1851,1.30503,63.0776,488.351,221.117,435.423,2.68873
17.556,1.24443,63.3105,557.683,250.487,498.264,2.74639
15.2693,1.18382,63.5098,642.693,286.67,575.217,2.808
13.2804,1.12321,63.6779,729.538,323.489,653.896,2.86305
11.5506,1.0626,63.8953,814.161,358.242,731.11,2.91071
10.0462,1.002,64.1456,912.319,397.85,821,2.96015
8.73764,0.941394,64.3803,1022.61,442.171,922.071,3.00971
7.59956,0.880788,64.6236,1170.08,501.451,1057.18,3.06822
6.60971,0.820182,64.6562,1343.21,574.96,1213.94,3.12814
5.74879,0.759576,64.856,1535.71,652.517,1390.19,3.18631
5,0.69897,65.0851,1767.56,744.625,1603.06,3.24737
4.34874,0.638363,65.2304,2003.14,839.257,1818.85,3.30171
3.78232,0.577758,65.4528,2282.44,948.222,2076.15,3.3584
3.28967,0.517152,65.6732,2545.96,1048.79,2319.9,3.40585
2.86118,0.456545,65.8183,2863.35,1172.92,2612.1,3.45687
2.48851,0.395939,65.9939,3207.57,1304.95,2930.12,3.50618
2.16438,0.335334,66.1049,3748.68,1518.46,3427.38,3.57388
1.88247,0.274728,66.0813,4311.95,1748.24,3941.65,3.63467
1.63727,0.21412,66.4268,4756.38,1902.18,4359.46,3.67728
1.42402,0.153516,66.3242,5301.73,2128.97,4855.5,3.72442
1.23854,0.09291,66.3217,5893.59,2366.87,5397.44,3.77038
1.07722,0.0323044,66.1735,6553.14,2647.26,5994.63,3.81645
0.936909,-0.0283026,66.2724,7341.69,2954.21,6721.09,3.8658
0.814875,-0.088909,65.5502,8264.54,3420.66,7523.41,3.91722
0.708737,-0.149515,65.4929,9281.09,3849.85,8444.96,3.9676
0.616423,-0.210121,65.3745,10406.8,4336.36,9460.29,4.01732
0.536134,-0.270727,65.0319,11786.5,4975.22,10684.9,4.07138
0.466302,-0.331333,64.8234,13318.9,5665.97,12053.6,4.12447
0.405565,-0.39194,64.4439,14796.7,6383.23,13349.1,4.17016
0.35274,-0.452545,63.9097,16360.3,7195.06,14693.2,4.21379
0.306795,-0.513152,63.1491,18231.3,8234.56,16265.7,4.26082
0.266835,-0.573757,62.7052,20015.7,9178.58,17787.1,4.30137
0.232079,-0.634364,59.7975,23323.5,11733.1,20157.4,4.36779
0.201851,-0.694969,62.2764,32874.4,15293.4,29100.5,4.51686
0.17556,-0.755574,60.0816,38143.8,19024.9,33060.6,4.58142
0.152693,-0.816181,58.5636,42000.3,21905.4,35835.5,4.62325
0.132804,-0.876789,52.7246,45219,27386.8,35982.3,4.65532
0.115506,-0.937395,52.0887,51806.9,31832.3,40873.7,4.71439
0.100462,-0.997998,48.7879,55647.2,36663.1,41862,4.74544
0.0873764,-1.05861,46.313,60546.3,41820.5,43782.5,4.78209
0.0759956,-1.11921,47.3944,87275.2,59080.7,64237.3,4.94089
0.0660971,-1.17982,41.4315,95849.7,71863,63426,4.98159
0.0574878,-1.24042,45.4738,142407,99860.9,101526,5.15353
0.05,-1.30103,20.5901,132991,124496,46770.2,5.12382